sr_no,timestamp,road_type,harsh_event,acc_x,acc_y,acc_z,gyro_x,gyro_y,gyro_z,mag_x,mag_y,mag_z,event_class
1,22-3-2023 20:0:4:187775,paved,reverse-safe,-0.4655922876203186,-0.9343352261954607,0.47318022690242273,-0.05835813599679953,5.027926681532501e-05,0.0034447004199910096,0.3750000756664553,0.6666666126338374,0.3749999524007594,0
2,22-3-2023 20:0:4:584860,paved,reverse-safe,-0.3854546385512053,-1.337410493130862,0.13506353420471645,-0.07291523704568777,-0.0036978004062963544,0.0008313771994889062,0.3750000756664553,0.6666666126338374,0.3749999524007594,0
3,22-3-2023 20:0:4:586927,paved,reverse-safe,-0.0839447868348393,-1.6226909232965778,-1.1844971265435738,-0.09468645601585983,-0.004549922459492015,-0.0012292602581185676,0.24999969733417968,1.0,0.4999992384121555,0
4,22-3-2023 20:0:4:594926,paved,reverse-safe,-0.24181144699744606,-1.258515611634659,-0.8907172383382205,-0.07666664927607045,0.0024514537280928544,-0.005477672193374582,0.24999969733417968,1.0,0.4999992384121555,0
5,22-3-2023 20:0:4:602926,paved,reverse-safe,-0.6822771970606167,-0.5461983949647671,0.4207340693135242,-0.04707092729239533,0.0029693140407306253,0.0025241769431152113,0.12499931900190402,0.8888889429217183,0.3749999524007594,0
6,22-3-2023 20:0:4:610926,paved,reverse-safe,-0.7045262151192354,-0.3538915175806796,0.7189200988629236,-0.053070772026258026,0.0014086032253216548,0.0025213898000531476,0.12499931900190402,0.8888889429217183,0.3749999524007594,0
7,22-3-2023 20:0:4:610926,paved,reverse-safe,-0.48576836092274733,-1.4615521547884378,-0.40492534764421384,-0.07579099701974275,-0.0029609972022215467,0.0007435141780909613,0.12499931900190402,0.8888889429217183,0.4999992384121555,0
8,22-3-2023 20:0:4:618922,paved,reverse-safe,-0.2111565023644033,-1.7273071807482836,-1.4327657589066831,-0.09562414657978792,-0.006563671528992997,-0.002158134479959683,0.12499931900190402,0.8888889429217183,0.4999992384121555,0
9,22-3-2023 20:0:4:626923,paved,reverse-safe,-0.6174435915962266,-0.9441428892734391,-0.3399182092091235,-0.06617039623818677,0.0019340570810268756,-0.002768600128214628,0.24999969733417968,0.5555555555555557,0.3749999524007594,0
10,22-3-2023 20:0:4:626923,paved,reverse-safe,-0.697492392979475,-0.3373249769982968,0.8532015194924385,-0.03752992918626474,0.005922903717796402,0.005736202976741156,0.24999969733417968,0.5555555555555557,0.3749999524007594,0
11,22-3-2023 20:0:4:634919,paved,reverse-safe,-0.42209866551724623,-1.0708554221925368,0.2852008774897149,-0.055179971175875794,0.00243203969527982,0.002168822605105729,0.3750000756664553,0.7777776697121191,0.3749999524007594,0
12,22-3-2023 20:0:4:682964,paved,reverse-safe,-0.12020339585965811,-1.4027733107128815,-1.4623800587649334,-0.08499451223054874,-0.0019104065996712349,-0.0013289074953949914,0.3750000756664553,0.7777776697121191,0.3749999524007594,0
13,22-3-2023 20:0:4:730952,paved,reverse-safe,-0.2583369288708227,-1.0330823471124804,-1.047633350853066,-0.06596782551661656,0.002676030070968532,0.0008837102009698482,0.12499931900190402,0.6666666126338374,0.4999992384121555,0
14,22-3-2023 20:0:4:778924,paved,reverse-safe,-0.43510824430426964,-0.6581685300392022,-0.3248177682548137,-0.0574619438428246,0.003395499481025186,0.002508714913134289,0.12499931900190402,0.6666666126338374,0.4999992384121555,0
15,22-3-2023 20:0:4:818922,paved,reverse-safe,-0.37654057068600727,-1.238256251441919,-1.0937850322316685,-0.07531733223759673,-0.0007061106172714542,-0.0006826647222087797,0.3750000756664553,0.7777776697121191,0.3749999524007594,0
16,22-3-2023 20:0:4:866907,paved,reverse-safe,-0.161375967955846,-1.157771936271864,-0.6568466496184784,-0.06980173724078612,0.002049062379335371,-0.0008557123195046367,0.3750000756664553,0.7777776697121191,0.3749999524007594,0
17,22-3-2023 20:0:4:914936,paved,reverse-safe,-0.6160976018862602,-0.242652231255985,0.2635996309617157,-0.0488363124198893,0.003178246953566799,0.006017014310320497,0.6249999243335447,0.7777776697121191,0.12499979373662548,0
18,22-3-2023 20:0:4:954891,paved,reverse-safe,-0.5579241659403141,-1.1459870987928942,-0.9970226041004653,-0.07684894221627261,0.005135932281893666,-0.0032467553167298295,0.6249999243335447,0.7777776697121191,0.12499979373662548,0
19,22-3-2023 20:0:5:2888,paved,reverse-safe,-0.5766945478148611,-0.8384601258365485,-0.08256724066054033,-0.06960768440743789,-0.002713707934985087,-0.0020645096802411195,0.4999983353379899,0.8888889429217183,0.4999992384121555,0
20,22-3-2023 20:0:5:50880,paved,reverse-safe,-0.43860228070524926,-1.278631546310715,-0.25026708089703864,-0.07054163323962974,-0.000386831996036494,-0.0014929833399423967,0.4999983353379899,0.8888889429217183,0.4999992384121555,0
21,22-3-2023 20:0:5:90913,paved,reverse-safe,-0.4553826808802764,-1.230650256748296,-0.5324075531079843,-0.07545646816072088,-0.0028871826087117605,-0.0020141351771398395,0.24999969733417968,0.5555555555555557,0.4999992384121555,0
22,22-3-2023 20:0:5:138860,paved,reverse-safe,-0.538795572096302,-1.249293525548011,-0.19827219519413308,-0.06648561588966646,-0.0006207707570682315,-0.0012987276245669875,0.24999969733417968,0.5555555555555557,0.4999992384121555,0
23,22-3-2023 20:0:5:186871,paved,reverse-safe,-0.3530743544043856,-1.1645468440603264,-0.10059659594284184,-0.06896343653311365,0.0012088427153496455,-0.0012381874713977095,0.3750000756664553,0.5555555555555557,0.12499979373662548,0
24,22-3-2023 20:0:5:226855,paved,reverse-safe,-0.39514993010592675,-1.3604032527830745,-0.4133509223415176,-0.07828990404031118,0.00514947141894683,-0.0035288128159371396,0.3750000756664553,0.5555555555555557,0.12499979373662548,0
25,22-3-2023 20:0:5:274849,paved,reverse-safe,-0.5562915363347715,-0.9959714011485092,0.32068161289559616,-0.05964841506787316,0.0012935907278339982,0.003528815673463528,0.24999969733417968,0.7777776697121191,0.3749999524007594,0
26,22-3-2023 20:0:5:322895,paved,reverse-safe,-0.5209126546064594,-0.8240689435616617,0.08032267481533067,-0.06932513207390675,0.007267381803055596,-0.0003432503192396107,0.24999969733417968,0.7777776697121191,0.3749999524007594,0
27,22-3-2023 20:0:5:370839,paved,reverse-safe,-0.6195151795810765,-1.3437905481506212,0.28611175649473286,-0.06619884593565115,0.007075007155400806,-0.0002096285578761585,0.3750000756664553,0.5555555555555557,0.12499979373662548,0
28,22-3-2023 20:0:5:410885,paved,reverse-safe,-0.5965536356831693,-1.1411593208010133,0.8112604533723945,-0.05842465655884141,-0.005000781679479047,0.0021449322982122284,0.3750000756664553,0.5555555555555557,0.12499979373662548,0
29,22-3-2023 20:0:5:458825,paved,reverse-safe,-0.7320517874888192,-0.8280972068453412,-0.4500278488841406,-0.07864880963828055,3.8766512636158323e-05,0.0009739122186879596,0.3750000756664553,0.7777776697121191,0.3749999524007594,0
30,22-3-2023 20:0:5:498862,paved,reverse-safe,-0.6187294176626711,-1.1575815928906794,-0.9616842322641931,-0.07622918949893123,0.001611208540309157,0.0018280810644019105,0.3750000756664553,0.7777776697121191,0.3749999524007594,0
31,22-3-2023 20:0:5:546820,paved,reverse-safe,-0.7384724153504021,-0.8899725514549095,0.1508112466272037,-0.06391301167233408,-0.0074161955756642485,-0.0016197759755011381,0.12499931900190402,0.7777776697121191,0.3749999524007594,0
32,22-3-2023 20:0:5:594852,paved,reverse-safe,-0.7103367886743474,-0.7886014145574858,-1.0866260143884663,-0.08190592366678456,-0.00427867723178852,-0.002056322428020013,0.12499931900190402,0.7777776697121191,0.3749999524007594,0
33,22-3-2023 20:0:5:634803,paved,reverse-safe,-0.6345019504257721,-1.1592353643601212,-0.8615274106651841,-0.0716574401758591,0.006032481411229604,0.0013529937957854317,0.3750000756664553,0.7777776697121191,0.3749999524007594,0
34,22-3-2023 20:0:5:682794,paved,reverse-safe,-0.4597715595476486,-0.86509039960185,0.4579807624457731,-0.05494554388699217,-0.006580130076688693,0.003731161223062228,0.3750000756664553,0.7777776697121191,0.3749999524007594,0
35,22-3-2023 20:0:5:730785,paved,reverse-safe,-0.4538777586221001,-0.8843175097885477,-0.07688669806772319,-0.05889812202720119,-0.006599649679846375,0.0034561368995035184,0.24999969733417968,0.7777776697121191,0.7499993970762894,0
36,22-3-2023 20:0:5:778779,paved,reverse-safe,-0.34799070394665316,-1.2845818542516099,-0.7650481734898006,-0.08287885338179109,0.005054406508237638,-0.0016112305454025265,0.24999969733417968,0.7777776697121191,0.7499993970762894,0
37,22-3-2023 20:0:5:818823,paved,reverse-safe,-0.42486663242215533,-0.864338608252966,-0.5141131698033707,-0.07941780263283973,0.011355061411347279,0.0016785823842652894,0.3750000756664553,0.4444442823459566,0.4999992384121555,0
38,22-3-2023 20:0:5:866818,paved,reverse-safe,-0.585635977098317,-0.7062731052556875,0.27420800628748865,-0.057371722418938065,-0.002298933707795197,0.005083291208776942,0.3750000756664553,0.4444442823459566,0.4999992384121555,0
39,22-3-2023 20:0:5:914810,paved,reverse-safe,-0.7837177785848178,-0.775732421691829,0.8886848057919063,-0.05705689455942241,-0.002157170374707429,0.003728531384035327,0.12499931900190402,0.7777776697121191,0.4999992384121555,0
40,22-3-2023 20:0:5:954764,paved,reverse-safe,-0.37319554190583826,-0.6777820725980458,-0.19220541184962814,-0.07907526352880007,-0.0012382564759232124,-0.0002767996397543566,0.12499931900190402,0.7777776697121191,0.4999992384121555,0
41,22-3-2023 20:0:6:2799,paved,reverse-safe,-0.3929963872969323,-1.1319079506379612,-0.6272014597378055,-0.07176999221451054,0.002908938903718128,0.0010562794171425636,0.3750000756664553,0.6666666126338374,0.6250000475992398,0
42,22-3-2023 20:0:6:50747,paved,reverse-safe,-0.5403530825108136,-0.8631147586574721,-0.028424718858164888,-0.05622274302387619,-0.008532269563668945,0.002210476383347995,0.3750000756664553,0.6666666126338374,0.6250000475992398,0
43,22-3-2023 20:0:6:90742,paved,reverse-safe,-0.44897519074878484,-0.9755956428860786,0.15066252587815274,-0.062335083524246354,0.0014257397553577907,0.002594508127493616,0.24999969733417968,0.6666666126338374,0.4999992384121555,0
44,22-3-2023 20:0:6:138736,paved,reverse-safe,-0.3595620410465988,-0.7893640704822021,-0.9421314623899179,-0.08491622869960627,0.002613948979831142,-0.002075411932874277,0.24999969733417968,0.6666666126338374,0.4999992384121555,0
45,22-3-2023 20:0:6:178729,paved,reverse-safe,-0.23119973955229298,-1.000619117878631,-1.5366540925452146,-0.08771197733008851,0.004592087123539973,-0.0014966108066715742,0.4999983353379899,0.6666666126338374,0.3749999524007594,0
46,22-3-2023 20:0:6:226723,paved,reverse-safe,-0.40005800484558607,-1.4336633018274663,-0.8578348003853397,-0.09484429699740708,0.011368689193074521,-0.0013040284203741635,0.4999983353379899,0.6666666126338374,0.3749999524007594,0
47,22-3-2023 20:0:6:274717,paved,reverse-safe,-0.6469628506833414,-1.414604293043815,-0.21458392477963473,-0.08431577596037126,0.008321682953792452,0.0019582914169524648,0.3750000756664553,0.7777776697121191,0.4999992384121555,0
48,22-3-2023 20:0:6:322726,paved,reverse-safe,-0.7449909210134062,-1.003344079242909,0.45620323290523235,-0.059899810545947896,0.0001304320283916048,0.005532014629647412,0.3750000756664553,0.7777776697121191,0.4999992384121555,0
49,22-3-2023 20:0:6:370720,paved,reverse-safe,-0.666902343918641,-1.0468736888182157,1.0064339044919763,-0.03861267884266543,-0.003403907373796984,0.008853693095648258,0.3750000756664553,0.6666666126338374,0.7499993970762894,0
50,22-3-2023 20:0:6:410707,paved,reverse-safe,-0.7500276020915492,-1.2696739698593005,1.7155675326845634,-0.04386176869850341,-0.007413109946934318,0.004627386587924852,0.3750000756664553,0.6666666126338374,0.7499993970762894,0
51,22-3-2023 20:0:6:458707,paved,reverse-safe,-0.5750823802943691,-1.1252615425172903,1.1675713488168147,-0.0611975695964857,0.008775139031917126,0.0005554248177988318,0.4999983353379899,0.5555555555555557,0.4999992384121555,0
52,22-3-2023 20:0:6:498738,paved,reverse-safe,-0.3974391438909804,-0.7702433656773293,0.5039130991159222,-0.07072930481457543,0.003420376635813068,-0.000976918951530488,0.4999983353379899,0.5555555555555557,0.4999992384121555,0
53,22-3-2023 20:0:6:546732,paved,reverse-safe,-0.2546403148227073,-0.8112994140947182,-0.9739192524828479,-0.09109458325021272,0.006611760458497011,-0.0011311132461086799,0.4999983353379899,0.6666666126338374,0.2500000951984803,0
54,22-3-2023 20:0:6:594726,paved,reverse-safe,-0.20278211186746103,-0.79950431273455,-2.446696622164276,-0.11332383191682432,0.011894704978881801,-0.0026043778984011093,0.4999983353379899,0.6666666126338374,0.2500000951984803,0
55,22-3-2023 20:0:6:634685,paved,reverse-safe,-0.09766101653442903,-1.6875775907145412,-2.5028617017547146,-0.11193031310127464,0.013029351004707309,0.0004593275888070537,0.24999969733417968,0.6666666126338374,0.6250000475992398,0
56,22-3-2023 20:0:6:682667,paved,reverse-safe,-0.1567539170294651,-2.158706551646275,-2.065594326308063,-0.08827693197959578,0.01133397664649957,0.007165876450103477,0.24999969733417968,0.6666666126338374,0.6250000475992398,0
57,22-3-2023 20:0:6:730661,paved,reverse-safe,-0.5548148554751223,-2.2629148760740714,-1.0284895395173461,-0.05149363809872879,-0.0038726479201014793,0.010285463203827661,0.3750000756664553,0.7777776697121191,0.4999992384121555,0
58,22-3-2023 20:0:6:770655,paved,reverse-safe,-0.6039817549236587,-2.0531072330226507,-0.20526268541591308,-0.05596984502006033,0.0014739516982445466,0.011323431918981124,0.3750000756664553,0.7777776697121191,0.4999992384121555,0
59,22-3-2023 20:0:6:818697,paved,reverse-safe,-0.6672718829376207,-1.6875446687373308,0.831101088586034,-0.04596730950107551,-0.005200731786664162,0.00953618487705204,0.24999969733417968,0.4444442823459566,0.6250000475992398,0
60,22-3-2023 20:0:6:866691,paved,reverse-safe,-0.3960685607972818,-1.2929697708459453,1.175978853743586,-0.03553248635528167,-0.009602141235047375,0.01320673386021505,0.24999969733417968,0.4444442823459566,0.6250000475992398,0
61,22-3-2023 20:0:6:914679,paved,reverse-safe,-0.22092935382601103,-0.9138831521758607,0.050957957090363326,-0.040527833434466976,0.0026214232552677196,0.013539880999458163,0.4999983353379899,0.6666666126338374,0.3749999524007594,0
62,22-3-2023 20:0:6:954649,paved,reverse-safe,-0.20017683839219325,-0.6922889569025475,-0.08034615162712724,-0.06645133264973808,0.005290640591158628,0.005830947930927985,0.4999983353379899,0.6666666126338374,0.3749999524007594,0
63,22-3-2023 20:0:7:2675,paved,reverse-safe,-0.26401387233393836,-0.15300801578664258,-0.91163831694214,-0.09072168220988794,0.011784574642285526,0.0009558813908734426,0.3750000756664553,0.6666666126338374,0.4999992384121555,0
64,22-3-2023 20:0:7:50633,paved,reverse-safe,0.06527347158582036,-0.7838908237204928,-2.1213630435600987,-0.09974759493499763,0.007769829182874863,0.0007557784407219152,0.3750000756664553,0.6666666126338374,0.4999992384121555,0
65,22-3-2023 20:0:7:90644,paved,reverse-safe,-0.2677027860703251,-1.9480674071854698,-2.165314262316935,-0.09374800894045927,0.011077891424510402,0.009218957979955408,0.6249999243335447,0.6666666126338374,0.6250000475992398,0
66,22-3-2023 20:0:7:138629,paved,reverse-safe,-0.7111104397146697,-2.107722014133232,-1.3795829269995132,-0.0701426799338452,0.006132373626982199,0.015766942342881493,0.6249999243335447,0.6666666126338374,0.6250000475992398,0
67,22-3-2023 20:0:7:178652,paved,reverse-safe,-0.5692552037124539,-1.9837432447352756,0.20529337559284744,-0.03992430428988851,-0.01124408682133515,0.018123124072886694,0.6249999243335447,0.4444442823459566,0.4999992384121555,0
68,22-3-2023 20:0:7:226606,paved,reverse-safe,-0.19300502916604173,-1.7115608678351357,1.1699504102249139,-0.035806345885331145,-0.006475536280540867,0.01713013809163318,0.6249999243335447,0.4444442823459566,0.4999992384121555,0
69,22-3-2023 20:0:7:274593,paved,reverse-safe,-0.39467792397569396,-1.685075110041967,0.7984727212326455,-0.06327465997595841,0.006837649005111138,0.017688553991485764,0.4999983353379899,0.5555555555555557,0.3749999524007594,0
70,22-3-2023 20:0:7:314591,paved,reverse-safe,-0.5852104803172807,-0.9214897974931935,-0.6903897262234675,-0.09390418658971911,0.01301725036585898,0.01520859544544983,0.4999983353379899,0.5555555555555557,0.3749999524007594,0
71,22-3-2023 20:0:7:362587,paved,reverse-safe,-0.32337576436801413,-1.1409152536931773,-1.6876380975331284,-0.0956818220718021,0.017072626367059217,0.013850296243344867,0.24999969733417968,0.5555555555555557,0.4999992384121555,0
72,22-3-2023 20:0:7:410576,paved,reverse-safe,-0.11021725568822041,-1.7417589652218752,-1.5680240207952778,-0.10300431565501304,0.007687491880363457,0.011798899368929658,0.24999969733417968,0.5555555555555557,0.4999992384121555,0
73,22-3-2023 20:0:7:458568,paved,reverse-safe,-0.5625293341362411,-1.8404981203187383,-0.22142540145016043,-0.08528300056548056,0.007568235829818275,0.01964610463732571,0.3750000756664553,0.7777776697121191,0.4999992384121555,0
74,22-3-2023 20:0:7:498566,paved,reverse-safe,-0.725601266992008,-1.8456121886955281,0.33977835856062377,-0.05367543339532505,-0.0016970553458482166,0.025811643338401153,0.3750000756664553,0.7777776697121191,0.4999992384121555,0
75,22-3-2023 20:0:7:546562,paved,reverse-safe,-0.5271031661915849,-1.5046845138327651,1.3243642258774682,-0.042896273924988744,-0.008214243888106168,0.027507423673059465,0.3750000756664553,0.6666666126338374,0.7499993970762894,0
76,22-3-2023 20:0:7:594554,paved,reverse-safe,-0.08658763079750836,-1.4877961125626,1.0206867097043346,-0.061582171684750504,0.00014401275633922628,0.022918300078518247,0.3750000756664553,0.6666666126338374,0.7499993970762894,0
77,22-3-2023 20:0:7:634547,paved,reverse-safe,0.04727552647129524,-1.322044374816755,-0.40470146566421406,-0.09369005536847749,-0.006009881581414001,0.014282911543853995,0.12499931900190402,0.5555555555555557,0.6250000475992398,0
78,22-3-2023 20:0:7:682548,paved,reverse-safe,-0.4248977412052163,-1.453379240602907,-1.5458102516820968,-0.09649522335367697,-0.0017028269034470144,0.012298498734237509,0.12499931900190402,0.5555555555555557,0.6250000475992398,0
79,22-3-2023 20:0:7:730543,paved,reverse-safe,-0.7390150470756782,-1.5820912579699566,-0.7788138362064467,-0.0646927853075008,0.0044881947343574456,0.020167991366045364,0.24999969733417968,0.6666666126338374,0.4999992384121555,0
80,22-3-2023 20:0:7:770532,paved,reverse-safe,-0.18486838181931597,-1.3466283209218641,0.004004229993162189,-0.041104884081171106,-0.018253276140714758,0.02527397509441043,0.24999969733417968,0.6666666126338374,0.4999992384121555,0
81,22-3-2023 20:0:7:818531,paved,reverse-safe,-0.061014851820204816,-1.2723883802211224,0.7919953201928789,-0.05036193752504375,-0.01116668389898147,0.029816790720100503,0.3750000756664553,0.6666666126338374,0.3749999524007594,0
82,22-3-2023 20:0:7:858533,paved,reverse-safe,-0.13042378505997854,-1.271213875371347,-0.3166359175164344,-0.08302423903730431,-0.004707826089625669,0.02279787884634934,0.3750000756664553,0.6666666126338374,0.3749999524007594,0
83,22-3-2023 20:0:7:914512,paved,reverse-safe,-0.5348685091534173,-1.3814823182489364,-1.6271946573620215,-0.09362550796320543,-0.00020737555667834674,0.022417613708685037,0.12499931900190402,0.6666666126338374,0.4999992384121555,0
84,22-3-2023 20:0:7:954555,paved,reverse-safe,-0.6792716941208893,-1.6674466754699988,-1.4405490815917106,-0.09859758027763683,0.0037882886832166446,0.01838153316394179,0.12499931900190402,0.6666666126338374,0.4999992384121555,0
85,22-3-2023 20:0:8:2549,paved,reverse-safe,-0.46556894246306835,-1.572904994642445,0.3144657719227273,-0.06291972163693296,-0.016755567189945295,0.02432458379516327,0.6249999243335447,0.5555555555555557,0.2500000951984803,0
86,22-3-2023 20:0:8:42499,paved,reverse-safe,-0.3807856105572712,-1.5407702207351464,1.2092604507403222,-0.04440462465393746,0.0013607669037240776,0.028967751571978242,0.6249999243335447,0.5555555555555557,0.2500000951984803,0
87,22-3-2023 20:0:8:90493,paved,reverse-safe,-0.7591843493053607,-1.3286639312917305,1.5642867196590382,-0.059433089155541866,0.011293266403249496,0.032644595151046146,0.24999969733417968,0.5555555555555557,0.6250000475992398,0
88,22-3-2023 20:0:8:138485,paved,reverse-safe,-0.7669716948646734,-1.3242553846148886,-0.2536447000464741,-0.0968636728183142,-0.011544313878686308,0.03280234187740356,0.24999969733417968,0.5555555555555557,0.6250000475992398,0
89,22-3-2023 20:0:8:178531,paved,reverse-safe,-0.6403399067393553,-1.743308733353438,-0.7552564543279775,-0.08871012160757298,0.008387894734467244,0.03232167672386966,0.3750000756664553,0.33333319825125984,0.4999992384121555,0
90,22-3-2023 20:0:8:226521,paved,reverse-safe,-0.8650402611051438,-1.5528774734501316,0.4313470664924207,-0.06172730699157723,-0.01028869166620702,0.03251673634321205,0.3750000756664553,0.33333319825125984,0.4999992384121555,0
91,22-3-2023 20:0:8:274475,paved,reverse-safe,-0.5221109602079308,-1.5654731589055713,0.5100633632990187,-0.07179221228685895,-0.01797847334109938,0.03275979988291336,0.3750000756664553,0.7777776697121191,0.6250000475992398,0
92,22-3-2023 20:0:8:314464,paved,reverse-safe,-0.23320626401088584,-1.288332328814022,-0.620943646961854,-0.10401770017556375,-0.011419116148176476,0.03017491529701139,0.3750000756664553,0.7777776697121191,0.6250000475992398,0
93,22-3-2023 20:0:8:362467,paved,reverse-safe,-0.609430723822664,-1.6213679325832762,-0.1332252059754131,-0.08049033257815903,-0.022895576931694556,0.03535701898029897,0.3750000756664553,0.5555555555555557,0.7499993970762894,0
94,22-3-2023 20:0:8:410460,paved,reverse-safe,-0.7765349829268583,-1.6741082574877266,1.2384070370607758,-0.05383767549853628,-0.04253574826097106,0.040990797739276795,0.3750000756664553,0.5555555555555557,0.7499993970762894,0
95,22-3-2023 20:0:8:458495,paved,reverse-safe,-0.42352155198958363,-1.1848318358291126,-0.33849342166819407,-0.08401328161710238,-0.026194166221038366,0.03486802969329997,0.0,0.5555555555555557,0.3749999524007594,0
96,22-3-2023 20:0:8:498467,paved,reverse-safe,-0.278084307417244,-1.6096316797262864,-0.9772288929698941,-0.09537347601473042,-0.027840844549470348,0.02803312588633441,0.0,0.5555555555555557,0.3749999524007594,0
97,22-3-2023 20:0:8:546449,paved,reverse-safe,-0.26475910985330586,-1.2895406569273502,-0.48071699929667155,-0.08573271887456682,-0.016229137664206375,0.03268927741298826,0.12499931900190402,0.7777776697121191,0.4999992384121555,0
98,22-3-2023 20:0:8:594437,paved,reverse-safe,-0.6180030959044374,-1.4445266984805671,0.6911997266316905,-0.06568443077965194,-0.017078580653727044,0.03370535007103461,0.12499931900190402,0.7777776697121191,0.4999992384121555,0
99,22-3-2023 20:0:8:634470,paved,reverse-safe,-0.40574395429027704,-1.3546789652639861,-0.4233710491445881,-0.07064126898029134,-0.0004913970739463362,0.03439908107349817,0.24999969733417968,0.8888889429217183,0.6250000475992398,0
100,22-3-2023 20:0:8:682464,paved,reverse-safe,-0.5117279282725482,-1.7989798217179493,-0.40402490493759546,-0.06203872805517466,-0.003619379312675458,0.04049390449123146,0.24999969733417968,0.8888889429217183,0.6250000475992398,0
101,22-3-2023 20:0:8:722426,paved,reverse-safe,-0.5554082712063714,-1.2614811301935407,0.6594362781220326,-0.04906425515753378,0.0006919215474570149,0.050874077115738194,0.3750000756664553,0.5555555555555557,0.3749999524007594,0
102,22-3-2023 20:0:8:770406,paved,reverse-safe,-0.5313204198948831,-1.0166426870936902,-0.5743509343784701,-0.0877215486895937,0.006884414543067966,0.0450874285686361,0.3750000756664553,0.5555555555555557,0.3749999524007594,0
103,22-3-2023 20:0:8:818398,paved,reverse-safe,-0.6478644979437594,-1.4028030816226598,-1.0338898335456772,-0.08635147850653796,0.004157142871019509,0.04031880509564859,0.3750000756664553,0.5555555555555557,0.4999992384121555,0
104,22-3-2023 20:0:8:858396,paved,reverse-safe,-0.5009038522624125,-1.1329868616210077,-0.12406077165768237,-0.06854698231545492,-0.018716298462931803,0.033400641950570784,0.3750000756664553,0.5555555555555557,0.4999992384121555,0
105,22-3-2023 20:0:8:906385,paved,reverse-safe,-0.38439587890503923,-1.5815074917598084,-1.4510915922984373,-0.09266338144915329,-0.0007105792625071924,0.030388140339331043,0.3750000756664553,0.6666666126338374,0.4999992384121555,0
106,22-3-2023 20:0:8:954386,paved,reverse-safe,-0.6883900198162589,-1.5349519809573096,-0.8964961791713616,-0.0694253192706268,0.0032662669767931996,0.04040382417590436,0.3750000756664553,0.6666666126338374,0.4999992384121555,0
107,22-3-2023 20:0:9:2380,paved,reverse-safe,-0.7085542918399325,-1.454579713362716,-0.42981179746720205,-0.061276655102562305,-0.007538659655475931,0.0396485877272817,0.3750000756664553,0.5555555555555557,0.6250000475992398,0
108,22-3-2023 20:0:9:42369,paved,reverse-safe,-0.5019477819146577,-1.6013266905991657,-0.648734258712635,-0.06934026967961462,0.0055988182818529604,0.04117425038911281,0.3750000756664553,0.5555555555555557,0.6250000475992398,0
109,22-3-2023 20:0:9:90367,paved,reverse-safe,-0.7136695608879922,-0.99217097099529,0.9590851285867821,-0.04691174385766243,-0.001161384799206534,0.04186004062290029,0.6249999243335447,0.7777776697121191,0.6250000475992398,0
110,22-3-2023 20:0:9:138360,paved,reverse-safe,-0.5233704593513094,-0.914227361497892,1.5033261710177075,-0.04292906825290052,-0.010117171105057821,0.04066626095707783,0.6249999243335447,0.7777776697121191,0.6250000475992398,0
111,22-3-2023 20:0:9:178355,paved,reverse-safe,-0.5078422072633574,-1.2252490497153083,-0.7308244028451383,-0.07787611919008747,-0.00817293580549986,0.03209428952383706,0.24999969733417968,0.6666666126338374,0.4999992384121555,0
112,22-3-2023 20:0:9:228986,paved,reverse-safe,-0.4471126008005964,-0.7576255376466451,-0.550462053677964,-0.06906699250447525,-0.005236861178783242,0.04097150496721035,0.24999969733417968,0.6666666126338374,0.4999992384121555,0
113,22-3-2023 20:0:9:268995,paved,reverse-safe,-0.3365009789335231,-0.6962644477793757,-0.7067577829401157,-0.08221843018758347,-0.0033496817710280285,0.03930431843906052,0.3750000756664553,0.5555555555555557,0.3749999524007594,0
114,22-3-2023 20:0:9:316992,paved,reverse-safe,-0.30456210973101816,-1.5465137682932348,-1.3919193558189136,-0.09016987971474033,-0.0011293412922343156,0.043903623220133456,0.3750000756664553,0.5555555555555557,0.3749999524007594,0
115,22-3-2023 20:0:9:356991,paved,reverse-safe,-0.2008138861135947,-1.0917125317124736,-0.7055005138954779,-0.06699595094698399,0.009386139213882174,0.045611427904875455,0.24999969733417968,0.6666666126338374,0.4999992384121555,0
116,22-3-2023 20:0:9:404982,paved,reverse-safe,-0.13295706006239505,-1.3822892800822437,-1.92533356936576,-0.09621437450795822,0.009374938962380758,0.036583597169054585,0.24999969733417968,0.6666666126338374,0.4999992384121555,0
117,22-3-2023 20:0:9:452969,paved,reverse-safe,-0.11652336847155315,-1.4940590148697712,-1.3124948013330924,-0.07787296438021041,0.0032799066677152208,0.04353151920773022,0.749999092002539,0.8888889429217183,0.4999992384121555,0
118,22-3-2023 20:0:9:492969,paved,reverse-safe,-0.27431838717774953,-1.459075806732227,0.2241760681917946,-0.05331398840326737,0.00029810700016705445,0.0424662040092449,0.749999092002539,0.8888889429217183,0.4999992384121555,0
119,22-3-2023 20:0:9:548958,paved,reverse-safe,-0.4888165497068985,-1.752072221122559,-0.6383879997692736,-0.07268659014001483,0.006574125126220321,0.03838035132241826,0.3750000756664553,0.5555555555555557,0.3749999524007594,0
120,22-3-2023 20:0:9:588960,paved,reverse-safe,-0.7347546135818571,-0.9182184720772193,0.5594648316102628,-0.06148531630397915,0.01118570030952375,0.04377368980438166,0.3750000756664553,0.5555555555555557,0.3749999524007594,0
121,22-3-2023 20:0:9:636950,paved,reverse-safe,-0.5546765577472501,-0.6949500848649598,0.7049571923210366,-0.0481708505605584,0.007040175351101858,0.04272494261248747,0.24999969733417968,0.6666666126338374,0.7499993970762894,0
122,22-3-2023 20:0:9:676944,paved,reverse-safe,-0.49435349544955653,-0.8057787866914062,-1.1663960363005583,-0.0888381119292884,0.0143055279555072,0.03740013718142115,0.24999969733417968,0.6666666126338374,0.7499993970762894,0
123,22-3-2023 20:0:9:724942,paved,reverse-safe,-0.5446559520007196,-1.0846875467055423,-1.5785503255899505,-0.08053141480618076,0.0034220123507995893,0.04629079975186738,0.6249999243335447,0.6666666126338374,0.3749999524007594,0
124,22-3-2023 20:0:9:772929,paved,reverse-safe,-0.15587280458355407,-1.0228112959588676,-1.050844413127603,-0.06500182850892328,0.005568055212009657,0.046938856085983985,0.6249999243335447,0.6666666126338374,0.3749999524007594,0
125,22-3-2023 20:0:9:812921,paved,reverse-safe,-0.34978994102334565,-1.2401052601240043,-2.133938745325719,-0.08156268589672792,0.015709482109242,0.042711773545454745,0.3750000756664553,1.0,0.3749999524007594,0
126,22-3-2023 20:0:9:863949,paved,reverse-safe,-0.5574311607781235,-0.6520557123854496,-0.9356508806018928,-0.0513655729454795,-0.010884481752133992,0.04450422167557707,0.3750000756664553,1.0,0.3749999524007594,0
127,22-3-2023 20:0:9:903989,paved,reverse-safe,-0.5690863999327092,-0.8312440888845293,-1.0389073911938254,-0.07858185918425935,0.01070507930598625,0.03976909993935886,0.24999969733417968,0.7777776697121191,0.3749999524007594,0
128,22-3-2023 20:0:9:951962,paved,reverse-safe,-0.8757159342306347,-1.8957418646340636,-0.8297968807867886,-0.09408268632375202,-0.0021765060082942333,0.0392599034577719,0.24999969733417968,0.7777776697121191,0.3749999524007594,0
129,22-3-2023 20:0:9:992003,paved,reverse-safe,-0.5177633119672627,-1.4059678151772819,-0.19428333097195138,-0.06406035841391908,-0.01673390268892093,0.04602078449615408,0.3750000756664553,0.8888889429217183,0.4999992384121555,0
130,22-3-2023 20:0:10:39997,paved,reverse-safe,-0.6175661814378559,-1.1201308441633089,-0.31113421477835435,-0.07151275381845897,0.0058936706201949025,0.04809281297836844,0.3750000756664553,0.8888889429217183,0.4999992384121555,0
131,22-3-2023 20:0:10:89754,paved,reverse-safe,-0.9203237847193173,-1.2591465484220707,-0.29064565380837265,-0.049587660149140386,-0.007672501879384692,0.05073734324655506,0.4999983353379899,0.5555555555555557,0.4999992384121555,0
132,22-3-2023 20:0:10:137799,paved,reverse-safe,-0.6914260390018219,-0.9597151637158494,1.0746877270756943,-0.04683518328195286,-0.015680002203875915,0.04806268141935913,0.4999983353379899,0.5555555555555557,0.4999992384121555,0
133,22-3-2023 20:0:10:177744,paved,reverse-safe,-0.47309076474220646,-0.7759166785300562,-0.34522473418288047,-0.07086771140055252,0.001385809253654606,0.03704353694943509,0.24999969733417968,0.6666666126338374,0.12499979373662548,0
134,22-3-2023 20:0:10:225740,paved,reverse-safe,-0.40734931907123556,-1.377127478373266,-1.0815416888585805,-0.09963703606175499,0.009387880818006709,0.037642390394615415,0.24999969733417968,0.6666666126338374,0.12499979373662548,0
135,22-3-2023 20:0:10:273732,paved,reverse-safe,-0.48716132554150304,-0.7805588269919241,-0.40073592960314564,-0.07725119880933477,-0.0024584515601989224,0.04690455542542681,0.4999983353379899,0.4444442823459566,0.4999992384121555,0
136,22-3-2023 20:0:10:313734,paved,reverse-safe,-0.5511593965732391,-0.7584368618876275,-0.6479105761163642,-0.08230854320432322,0.020411924063654885,0.046609917125177605,0.4999983353379899,0.4444442823459566,0.4999992384121555,0
137,22-3-2023 20:0:10:361780,paved,reverse-safe,-0.8792273670370934,-1.3072038744132617,-0.9601450903973412,-0.07586372098877003,0.01423979005261105,0.050243944721380086,0.4999983353379899,0.6666666126338374,0.7499993970762894,0
138,22-3-2023 20:0:10:401716,paved,reverse-safe,-0.8887298416115558,-0.8967227371477906,0.3525109605383485,-0.04556025143825415,-0.016092973518209982,0.049853626522298786,0.4999983353379899,0.6666666126338374,0.7499993970762894,0
139,22-3-2023 20:0:10:449709,paved,reverse-safe,-0.5112113668869612,-0.6817554642614427,-0.06585266636797305,-0.06743151039221838,0.007160033026432248,0.04190464474579596,0.4999983353379899,0.7777776697121191,0.6250000475992398,0
140,22-3-2023 20:0:10:497767,paved,reverse-safe,-0.5039687803918605,-1.4599151837539428,-0.41325341447506275,-0.07264349555016471,-0.0009680584389449472,0.04494631509268951,0.4999983353379899,0.7777776697121191,0.6250000475992398,0
141,22-3-2023 20:0:10:537758,paved,reverse-safe,-0.5250467393253782,-0.6685920547250029,0.33278634071045904,-0.055276283636691195,-0.012660861093821118,0.049867915279490665,0.6249999243335447,0.6666666126338374,0.4999992384121555,0
142,22-3-2023 20:0:10:588924,paved,reverse-safe,-0.27153719370173485,-0.5787198549139999,-0.5351470835381504,-0.07918579720890631,0.011307640122684445,0.04333069186559103,0.6249999243335447,0.6666666126338374,0.4999992384121555,0
143,22-3-2023 20:0:10:637002,paved,reverse-safe,-0.5491695777930892,-1.3781715654979667,-1.2038943617374542,-0.0895062411635415,0.020657312170005417,0.038845484002586535,0.4999983353379899,0.6666666126338374,0.4999992384121555,0
144,22-3-2023 20:0:10:676939,paved,reverse-safe,-0.8195730899182259,-0.8736909310024032,-0.35131365754774757,-0.07933995495988573,0.0031867897714906723,0.043750956912672535,0.4999983353379899,0.6666666126338374,0.4999992384121555,0
145,22-3-2023 20:0:10:725842,paved,reverse-safe,-0.48667015685769066,-1.0412820032034809,-1.0409004640530934,-0.06477897167864693,0.0014839403292026202,0.04165107548824873,0.6249999243335447,0.6666666126338374,0.4999992384121555,0
146,22-3-2023 20:0:10:765845,paved,reverse-safe,-0.39384428102492725,-1.0590618827629186,-1.0960188424841697,-0.07794836694285706,-0.0031093799955646166,0.03988608631359389,0.6249999243335447,0.6666666126338374,0.4999992384121555,0
147,22-3-2023 20:0:10:813890,paved,reverse-safe,-0.37656399042662647,-1.0884737844524461,-0.46135378982385145,-0.04997582521567205,-0.011661968032120475,0.04782858697064212,0.3750000756664553,0.8888889429217183,0.3749999524007594,0
148,22-3-2023 20:0:10:861859,paved,reverse-safe,-0.6360747085535798,-0.7624607283780902,1.3289621986682425,-0.024664633785432984,-0.011667216817795268,0.04673987197801337,0.3750000756664553,0.8888889429217183,0.3749999524007594,0
149,22-3-2023 20:0:10:901822,paved,reverse-safe,-0.3548535353961475,-0.7288296293705959,-1.0489640118393986,-0.07652893336033223,-0.018456150384661158,0.03909099955772447,0.4999983353379899,0.5555555555555557,0.4999992384121555,0
150,22-3-2023 20:0:10:949862,paved,reverse-safe,-0.6883645316112086,-0.9782601716314696,-1.6870561675516975,-0.08843830474957622,-0.006363930779198144,0.036724180217519505,0.4999983353379899,0.5555555555555557,0.4999992384121555,0
151,22-3-2023 20:0:10:997869,paved,reverse-safe,-0.5332703181188478,-1.1498650533206802,-0.49939719609903754,-0.08128253721241648,-0.024450532546711055,0.03931308172377619,0.4999983353379899,0.5555555555555557,0.4999992384121555,0
152,22-3-2023 20:0:11:43549,paved,reverse-safe,-0.3167922389482104,-1.1072147129100074,-1.3277121131485967,-0.10224512130444219,-0.02062336533237216,0.03484296101261968,0.4999983353379899,0.5555555555555557,0.4999992384121555,0
153,22-3-2023 20:0:11:81854,paved,reverse-safe,-0.606387487243402,-1.5064938466394346,-1.2947248477832032,-0.0871523610849747,-0.0017197114528370062,0.03833149366826388,0.4999983353379899,0.8888889429217183,0.6250000475992398,0
154,22-3-2023 20:0:11:129853,paved,reverse-safe,-0.41681258221338957,-1.3002247360065766,-0.2394055858567301,-0.05235522057188265,-0.02144866909075208,0.03860407917914833,0.4999983353379899,0.8888889429217183,0.6250000475992398,0
155,22-3-2023 20:0:11:177840,paved,reverse-safe,-0.14248134818198938,-1.0330253709231523,0.2891744886214769,-0.05360448999645914,0.005478041785356706,0.03460705718355983,0.6249999243335447,0.6666666126338374,0.6250000475992398,0
156,22-3-2023 20:0:11:225894,paved,reverse-safe,-0.28307966107425103,-1.176081806419893,-0.9942170963744463,-0.08411184630635561,0.008891176482639391,0.03167768770449482,0.6249999243335447,0.6666666126338374,0.6250000475992398,0
157,22-3-2023 20:0:11:265830,paved,reverse-safe,-0.26785052800850356,-1.385981867896844,-1.149228348210491,-0.11133592586997526,0.0067672287753636345,0.033013777937664225,0.6249999243335447,0.6666666126338374,0.7499993970762894,0
158,22-3-2023 20:0:11:313842,paved,reverse-safe,-0.5980078648902915,-1.1559583556325905,-0.275386574676162,-0.07497996290918825,0.009511724193164857,0.03541277488451665,0.6249999243335447,0.6666666126338374,0.7499993970762894,0
159,22-3-2023 20:0:11:362870,paved,reverse-safe,-0.6234090771908989,-1.207145707698717,0.37671205317144085,-0.06508700523571609,0.01376937148896927,0.03727728767528091,0.3750000756664553,0.7777776697121191,0.6250000475992398,0
160,22-3-2023 20:0:11:404945,paved,reverse-safe,-0.3141525353191175,-1.1571736237380534,-0.6542151401377395,-0.08336170469372073,-0.008075630885886701,0.033810609107192253,0.3750000756664553,0.7777776697121191,0.6250000475992398,0
161,22-3-2023 20:0:11:452979,paved,reverse-safe,-0.546331023220712,-1.2818843345081525,-0.5461293213232645,-0.06577437681877024,-0.006769551812813623,0.031945840088878956,0.6249999243335447,0.6666666126338374,0.4999992384121555,0
162,22-3-2023 20:0:11:492968,paved,reverse-safe,-0.5037945037650562,-1.27704273000214,0.5889515543978807,-0.05191026072917148,0.010042412408453247,0.0281271396963848,0.6249999243335447,0.6666666126338374,0.4999992384121555,0
163,22-3-2023 20:0:11:538981,paved,reverse-safe,-0.6016184145923199,-0.8042164063197025,0.019260404032936718,-0.07062341516105779,0.006295702589818534,0.024012637156899906,0.6249999243335447,0.6666666126338374,0.3749999524007594,0
164,22-3-2023 20:0:11:587003,paved,reverse-safe,-0.37004405471508006,-0.8987464703136725,-1.6610287202324683,-0.09760786679871108,-0.012231763236931883,0.025309391973817846,0.6249999243335447,0.6666666126338374,0.3749999524007594,0
165,22-3-2023 20:0:11:627037,paved,reverse-safe,-0.3399262496792108,-1.123255273707196,-1.1670216788927739,-0.0746233527656193,0.008149684516346196,0.03213867622422953,0.6249999243335447,1.0,0.4999992384121555,0
166,22-3-2023 20:0:11:675025,paved,reverse-safe,-0.6535669351455075,-1.105679573759464,0.45726319683963124,-0.04461320902658657,-0.013330223248747549,0.03405530219307669,0.6249999243335447,1.0,0.4999992384121555,0
167,22-3-2023 20:0:11:723025,paved,reverse-safe,-0.5738097161274945,-0.8433151816850323,0.8584533997441346,-0.04870623671928179,-0.0153781052580751,0.028473356468241354,0.4999983353379899,0.8888889429217183,0.3749999524007594,0
168,22-3-2023 20:0:11:770971,paved,reverse-safe,-0.4988911691738178,-1.0596329397104571,-0.7077640626591297,-0.06636272016065466,0.014716995069026196,0.01577556832710543,0.4999983353379899,0.8888889429217183,0.3749999524007594,0
169,22-3-2023 20:0:11:810965,paved,reverse-safe,-0.8870461495720009,-1.2442091413015595,-1.0953107122259955,-0.10078032979451565,0.008959778829256545,0.012261993331973742,0.6249999243335447,0.6666666126338374,0.4999992384121555,0
170,22-3-2023 20:0:11:858959,paved,reverse-safe,-1.1053508606557085,-1.3427084137579401,-0.6175719578185614,-0.07710367717429742,-0.007132191196352345,0.02193279478581162,0.6249999243335447,0.6666666126338374,0.4999992384121555,0
171,22-3-2023 20:0:11:906951,paved,reverse-safe,-0.4955610694070255,-1.3883711245665546,0.3386201084774798,-0.04774593833061974,-0.007486909630921871,0.026216828550612616,0.749999092002539,0.6666666126338374,0.7499993970762894,0
172,22-3-2023 20:0:11:946947,paved,reverse-safe,-0.7681399486010899,-0.5247858035359954,1.0867410222275367,-0.04834144567012332,-0.0006482284281723715,0.025509632885637516,0.749999092002539,0.6666666126338374,0.7499993970762894,0
173,22-3-2023 20:0:11:997721,paved,reverse-safe,-0.46214335713358773,-0.24997104239312806,-0.1896281800640236,-0.08039930354391447,0.005028107934925097,0.020476632712035682,0.749999092002539,0.6666666126338374,0.4999992384121555,0
174,22-3-2023 20:0:12:36016,paved,reverse-safe,-0.13402059619747925,-1.1467800882786126,-1.1437853430799803,-0.09557684803854734,-0.0020551069521025887,0.01364799926305408,0.749999092002539,0.6666666126338374,0.4999992384121555,0
175,22-3-2023 20:0:12:83978,paved,reverse-safe,-0.5480488086936577,-1.5455786754143528,-0.7180157914449499,-0.07712812534974792,-0.010426857551670126,0.016351792583197865,0.749999092002539,0.4444442823459566,0.3749999524007594,0
176,22-3-2023 20:0:12:132005,paved,reverse-safe,-0.44278337636642573,-1.30201826084289,0.22405721134584045,-0.04775413866463728,-0.013153297926490004,0.016185112574550853,0.749999092002539,0.4444442823459566,0.3749999524007594,0
177,22-3-2023 20:0:12:171958,paved,reverse-safe,-0.695312201374019,-0.7566530160417356,2.0443161140530126,-0.037193822869558336,-0.007484757989780538,0.021283675413527894,0.6249999243335447,0.5555555555555557,0.6250000475992398,0
178,22-3-2023 20:0:12:219965,paved,reverse-safe,-0.544872992237814,-0.4736891090745953,2.0653440604802626,-0.052943892762777216,0.0031812968064046333,0.01907054530562448,0.6249999243335447,0.5555555555555557,0.6250000475992398,0
179,22-3-2023 20:0:12:267948,paved,reverse-safe,-0.12314435812445101,-0.2778010520571401,1.165895382184646,-0.0817662635325776,0.0007860734116041327,0.013180156932051816,0.6249999243335447,0.6666666126338374,0.3749999524007594,0
180,22-3-2023 20:0:12:315983,paved,reverse-safe,-0.20903898344512767,0.11251409800760948,0.04911761000398829,-0.07107959398512922,0.0077874839303537806,0.012819724444615535,0.6249999243335447,0.6666666126338374,0.3749999524007594,0
181,22-3-2023 20:0:12:355980,paved,reverse-safe,-0.4520691551566274,0.17081682298522213,-1.01315666582584,-0.07015011221887306,-0.011018877905453289,0.018208810310070676,0.4999983353379899,0.8888889429217183,0.4999992384121555,0
182,22-3-2023 20:0:12:403970,paved,reverse-safe,-0.514836585926306,-0.04127154880951353,-1.1401468422173815,-0.0873607432177728,-0.01231416869988865,0.015736688013192966,0.4999983353379899,0.8888889429217183,0.4999992384121555,0
183,22-3-2023 20:0:12:451967,paved,reverse-safe,-0.37110989049732956,0.32429538534921354,-1.4026595818862213,-0.07932809932412538,-0.013981756988763536,0.007983843658435116,0.8749996216677244,0.7777776697121191,0.3749999524007594,0
184,22-3-2023 20:0:12:491963,paved,reverse-safe,-0.2273918452332712,-0.03955377951502237,-1.9205924897411448,-0.09167797893609801,-0.0044651862784923346,0.0025610150303012743,0.8749996216677244,0.7777776697121191,0.3749999524007594,0
185,22-3-2023 20:0:12:539951,paved,reverse-safe,0.05872590208097786,-0.7512464898559263,-2.743498635905325,-0.12095353803274345,0.024067479850930253,-0.0038635056978942404,0.3750000756664553,0.6666666126338374,0.3749999524007594,0
186,22-3-2023 20:0:12:587908,paved,reverse-safe,0.5059971406945204,-1.0993096433745508,-2.5065637956913704,-0.10829486833892935,0.016376932604952432,0.00270614082183178,0.3750000756664553,0.6666666126338374,0.3749999524007594,0
187,22-3-2023 20:0:12:627945,paved,reverse-safe,-0.013214531386471662,-1.9049023896782629,-2.1601161374891715,-0.09750013440380552,0.014930156682023733,0.011644844665903039,0.749999092002539,0.7777776697121191,0.3749999524007594,0
188,22-3-2023 20:0:12:675894,paved,reverse-safe,-0.049722327785416444,-2.236611072820774,-2.332402178943798,-0.07989723554217552,0.0072934065473069885,0.015152138618835794,0.749999092002539,0.7777776697121191,0.3749999524007594,0
189,22-3-2023 20:0:12:723891,paved,reverse-safe,-0.11613264114193397,-1.8852756416732155,-1.8541421508181595,-0.05629374968887307,-0.0050989309375739904,0.010988258548296537,0.749999092002539,0.7777776697121191,0.3749999524007594,0
190,22-3-2023 20:0:12:763884,paved,reverse-safe,-0.18644267267287723,-2.2615600156135764,-1.5121157519138024,-0.049969744350577446,-0.0034757146451444504,0.003560663031529166,0.749999092002539,0.7777776697121191,0.3749999524007594,0
191,22-3-2023 20:0:12:811874,paved,reverse-safe,-0.1496234060702894,-2.189162247318831,-1.4058410831698005,-0.07014931202508846,-0.005001792998665789,-0.0053085134694943375,0.8749996216677244,0.6666666126338374,0.7499993970762894,0
192,22-3-2023 20:0:12:859925,paved,reverse-safe,-0.2071687244881975,-2.3593019520254748,-1.0027467109331036,-0.09851084815128099,0.004389331761569951,-0.0075482084867203245,0.8749996216677244,0.6666666126338374,0.7499993970762894,0
193,22-3-2023 20:0:12:899881,paved,reverse-safe,-0.2683408619928072,-2.5784269044391537,-0.9573920799197724,-0.10129821010889282,0.006947516116841231,-0.004206362931556853,0.749999092002539,0.6666666126338374,0.2500000951984803,0
194,22-3-2023 20:0:12:947863,paved,reverse-safe,-0.10536985682415492,-2.8498179512627164,-2.53348467188441,-0.1048881477622191,0.01096677667455198,-7.369504458330442e-05,0.749999092002539,0.6666666126338374,0.2500000951984803,0
195,22-3-2023 20:0:12:995855,paved,reverse-safe,-0.11040478774264863,-3.2753796737554,-2.456880464876434,-0.08591486990654174,0.01027095908164427,0.0048559191903487274,0.6249999243335447,0.6666666126338374,0.6250000475992398,0
196,22-3-2023 20:0:13:35852,paved,reverse-safe,-0.2376690864561526,-3.266526352877239,-2.560985630842325,-0.07477189344516368,0.0062010694977643385,0.004007868303789054,0.6249999243335447,0.6666666126338374,0.6250000475992398,0
197,22-3-2023 20:0:13:83844,paved,reverse-safe,-0.5428157195008296,-2.924424256593709,-2.3604004943217687,-0.07351257950201437,0.0006137112100452298,0.0014155980522934518,0.749999092002539,0.7777776697121191,0.2500000951984803,0
198,22-3-2023 20:0:13:131835,paved,reverse-safe,-0.24601958478293634,-2.5257518154850254,-1.288065226303169,-0.06317859353199914,-0.012286584678047427,-0.003000818025655191,0.749999092002539,0.7777776697121191,0.2500000951984803,0
199,22-3-2023 20:0:13:171826,paved,reverse-safe,-0.7232516983049639,-2.432721955509929,-0.4323279273742937,-0.051393813580366175,-0.01954121400249239,-0.00020573013393856412,0.749999092002539,0.7777776697121191,0.3749999524007594,0
200,22-3-2023 20:0:13:219824,paved,reverse-safe,-0.9565167578837219,-2.420013727490893,-0.13613050087514877,-0.0401844162538477,-0.00865398264064908,-0.0005195288237878136,0.749999092002539,0.7777776697121191,0.3749999524007594,0
201,22-3-2023 20:0:13:267819,paved,reverse-safe,-0.39615073939455847,-2.301223715392929,0.6061875438971629,-0.029699013855073453,-0.013583245562804113,-0.004000342583855338,0.6249999243335447,0.5555555555555557,0.8749996985381452,0
202,22-3-2023 20:0:13:315808,paved,reverse-safe,-0.5788192779957495,-2.106219378687274,0.7120118570636365,-0.04016419292120925,-0.03130303548053964,-0.00018264143700366707,0.6249999243335447,0.5555555555555557,0.8749996985381452,0
203,22-3-2023 20:0:13:359905,paved,reverse-safe,-0.728379392625776,-1.7904397292653353,1.1148446672972938,-0.04084260393733668,-0.019169067802735026,0.000554456686225132,0.749999092002539,0.6666666126338374,0.8749996985381452,0
204,22-3-2023 20:0:13:399937,paved,reverse-safe,-0.6675765363874113,-1.6927966566532482,2.244402455663373,-0.036468581942733974,-0.01722686047054705,-0.0077300504089170986,0.749999092002539,0.6666666126338374,0.8749996985381452,0
205,22-3-2023 20:0:13:447952,paved,reverse-safe,-0.4181658614690555,-1.6587585569485404,1.9968101144541834,-0.04296582304354334,-0.005763484704098426,-0.01137533272043641,0.6249999243335447,0.5555555555555557,0.4999992384121555,0
206,22-3-2023 20:0:13:495958,paved,reverse-safe,-0.5741864796012432,-1.6526637288342578,1.210430323208226,-0.046383890940649077,-0.00022552008779043366,-0.012765708990736037,0.6249999243335447,0.5555555555555557,0.4999992384121555,0
207,22-3-2023 20:0:13:535952,paved,reverse-safe,-0.7729808237623212,-1.8339046188316492,0.8259995000237101,-0.059034965133203825,0.013180449753866084,-0.00985191914550939,0.8749996216677244,0.8888889429217183,0.4999992384121555,0
208,22-3-2023 20:0:13:583948,paved,reverse-safe,-0.8083725270481714,-2.0820414790854596,0.7312414747774187,-0.05956133802966538,-0.0037549567945945606,-0.014035778880912845,0.8749996216677244,0.8888889429217183,0.4999992384121555,0
209,22-3-2023 20:0:13:631896,paved,reverse-safe,-0.8412289916095987,-2.3971384261233393,0.5517070352617919,-0.05655254620516507,-0.003358318489203933,-0.01809361749140089,0.8749996216677244,0.6666666126338374,0.4999992384121555,0
210,22-3-2023 20:0:13:671883,paved,reverse-safe,-0.8213970704298245,-2.6164504903022454,0.5237415194786885,-0.04828610003181934,0.01192041302453686,-0.01908811046729474,0.8749996216677244,0.6666666126338374,0.4999992384121555,0
211,22-3-2023 20:0:13:719888,paved,reverse-safe,-0.6740215248345135,-2.7991651160175914,0.631999357097054,-0.04321260704043047,-0.00036279638323444795,-0.025106177801611874,0.6249999243335447,1.0,0.2500000951984803,0
212,22-3-2023 20:0:13:759924,paved,reverse-safe,-1.1597409152949316,-2.7818323810081407,0.24908396395901672,-0.04717444737173708,0.0058229774149265905,-0.0279966886095838,0.6249999243335447,1.0,0.2500000951984803,0
213,22-3-2023 20:0:13:815918,paved,reverse-safe,-0.8176830351731766,-2.149653030540507,1.3801256314624044,-0.0393001708429002,-0.01866120096863077,-0.02842528607528134,0.6249999243335447,0.5555555555555557,0.6250000475992398,0
214,22-3-2023 20:0:13:855857,paved,reverse-safe,-0.6425116315298978,-2.431240978177815,1.4105071943522927,-0.041791578916567707,-0.022446065679635287,-0.02714659887204666,0.6249999243335447,0.5555555555555557,0.6250000475992398,0
215,22-3-2023 20:0:13:903872,paved,reverse-safe,-0.680162051326446,-2.152730069162086,1.211282158145178,-0.045282248601736366,-0.02079923580715431,-0.02974189375766561,0.749999092002539,0.7777776697121191,0.3749999524007594,0
216,22-3-2023 20:0:13:951846,paved,reverse-safe,-1.0393930269577518,-2.2481476933891673,1.9791218523944598,-0.0478686403651428,-0.025275466876600622,-0.037891377733603696,0.749999092002539,0.7777776697121191,0.3749999524007594,0
217,22-3-2023 20:0:13:991896,paved,reverse-safe,-0.8929127988051807,-2.0958377089444866,2.1841076532164667,-0.04183380128026702,-0.006116233266976023,-0.04131423950464988,0.6249999243335447,0.7777776697121191,0.4999992384121555,0
218,22-3-2023 20:0:14:39878,paved,reverse-safe,-0.7182796567430817,-2.2354234596451206,0.41959829134580784,-0.05485377861658495,0.01879679970949094,-0.047962127061013764,0.6249999243335447,0.7777776697121191,0.4999992384121555,0
219,22-3-2023 20:0:14:79836,paved,reverse-safe,-0.2925327779540714,-2.3433024124854334,-0.32809854946534245,-0.05727433697773064,0.005152777912363451,-0.0451981948196793,1.0,1.0,0.4999992384121555,0
220,22-3-2023 20:0:14:127829,paved,reverse-safe,-0.38324334451218134,-2.853478363621381,-0.8185790829852968,-0.07082961218500905,-0.013672073669628216,-0.04214595514812214,1.0,1.0,0.4999992384121555,0
221,22-3-2023 20:0:14:175822,paved,reverse-safe,-0.399214557526686,-2.6597859990605976,-1.6697187758748235,-0.07626084207844118,0.028360904440895923,-0.05303655831260608,0.8749996216677244,0.8888889429217183,0.7499993970762894,0
222,22-3-2023 20:0:14:215866,paved,reverse-safe,0.018117446201056042,-2.8886595337063965,-1.645971460136071,-0.06569341297666051,0.02012703212901392,-0.05008483441289484,0.8749996216677244,0.8888889429217183,0.7499993970762894,0
223,22-3-2023 20:0:14:263861,paved,reverse-safe,-0.37356561245723074,-3.0994409517305805,-1.3831798190486815,-0.04922875963455521,0.014663207282660691,-0.04466001013311744,1.0,0.6666666126338374,0.3749999524007594,0
224,22-3-2023 20:0:14:311844,paved,reverse-safe,-0.36766569310512837,-2.9032552145902715,-1.5960203721535136,-0.05167059726637357,0.0018057173520688325,-0.04267753335843228,1.0,0.6666666126338374,0.3749999524007594,0
225,22-3-2023 20:0:14:359809,paved,reverse-safe,0.42834356689040737,-2.653343944777118,-2.0168291116882906,-0.044878826803627016,-0.020401542774406825,-0.052325287162756015,0.749999092002539,0.6666666126338374,0.6250000475992398,0
226,22-3-2023 20:0:14:399809,paved,reverse-safe,-0.38624742596899037,-2.7219209134291047,0.007880334175923043,-0.05746813740289611,-0.008952097842816949,-0.05429088371849731,0.749999092002539,0.6666666126338374,0.6250000475992398,0
227,22-3-2023 20:0:14:447791,paved,reverse-safe,-0.5325250954712154,-3.0044921077103774,-1.5792837682343779,-0.09514259095700683,-0.008117531150913768,-0.06649606363590665,0.749999092002539,0.4444442823459566,0.4999992384121555,0
228,22-3-2023 20:0:14:495822,paved,reverse-safe,-0.45873610669676196,-2.7043870179111176,-1.5573030067586615,-0.1088412472988656,0.004528440672401192,-0.0718008466880946,0.749999092002539,0.4444442823459566,0.4999992384121555,0
229,22-3-2023 20:0:14:535778,paved,reverse-safe,-0.6869276390026959,-2.3092952830966835,-0.42403786153957124,-0.09219660207431078,0.012217079394682836,-0.0669912405223811,0.749999092002539,0.7777776697121191,0.6250000475992398,0
230,22-3-2023 20:0:14:583770,paved,reverse-safe,0.0007261827490107065,-2.0815766887592977,-2.1032339939300266,-0.10165786991171871,0.0044392265989411615,-0.06343584602277598,0.749999092002539,0.7777776697121191,0.6250000475992398,0
231,22-3-2023 20:0:14:631765,paved,reverse-safe,0.4591495083286012,-1.8419069816388813,-2.070446741725846,-0.07899102447688389,0.01392640112458031,-0.06367483273429646,0.4999983353379899,0.5555555555555557,0.3749999524007594,0
232,22-3-2023 20:0:14:671763,paved,reverse-safe,0.0052618817596404854,-2.316331408614565,-2.123694488606568,-0.07846731681732359,0.02330498277699422,-0.06482065320274935,0.4999983353379899,0.5555555555555557,0.3749999524007594,0
233,22-3-2023 20:0:14:719806,paved,reverse-safe,0.023786155461694318,-2.5668491186054663,-2.3152653018101885,-0.0915660369117697,0.031254008508386305,-0.0685783025326198,0.6249999243335447,0.6666666126338374,0.7499993970762894,0
234,22-3-2023 20:0:14:759746,paved,reverse-safe,0.16670111852561614,-2.2766660175465065,-2.5389791222556997,-0.08109218452804112,0.0174745784786007,-0.06360824651794927,0.6249999243335447,0.6666666126338374,0.7499993970762894,0
235,22-3-2023 20:0:14:815743,paved,reverse-safe,0.014151561682454489,-3.0530522080113967,-1.8375715236754102,-0.06943793465865404,0.0026060668293527035,-0.06142142627310044,0.6249999243335447,0.7777776697121191,0.0,0
236,22-3-2023 20:0:14:855778,paved,reverse-safe,-0.87626443831213,-2.7045972035962773,-0.2333949604485761,-0.05367008216744895,-0.00010986833928776406,-0.06424838028587819,0.6249999243335447,0.7777776697121191,0.0,0
237,22-3-2023 20:0:14:903779,paved,reverse-safe,-1.0767697414295256,-2.283526635950129,0.95131058953362,-0.027142533107813213,-0.03881663609854369,-0.06696593210617427,0.8749996216677244,0.7777776697121191,0.4999992384121555,0
238,22-3-2023 20:0:14:943775,paved,reverse-safe,-0.6567929282461672,-2.195246797171499,1.1654717504432317,-0.04054548846667718,-0.01359293360627229,-0.07337914445676257,0.8749996216677244,0.7777776697121191,0.4999992384121555,0
239,22-3-2023 20:0:14:991771,paved,reverse-safe,-0.9884163630965124,-1.9745741524187173,1.6151618063084368,-0.051413089403279925,0.004371377491317691,-0.07693494934357911,0.749999092002539,0.7777776697121191,0.4999992384121555,0
240,22-3-2023 20:0:15:39724,paved,reverse-safe,-1.065844695203124,-2.1942856271920754,1.2176916718771102,-0.03134129465679123,-0.001760536641850433,-0.07865121097218479,0.749999092002539,0.7777776697121191,0.4999992384121555,0
241,22-3-2023 20:0:15:79758,paved,reverse-safe,-1.0151736023657045,-2.4660366961333677,1.2157647009285175,-0.023192646846663063,-0.02111516053100647,-0.07477954848071086,0.6249999243335447,0.5555555555555557,0.6250000475992398,0
242,22-3-2023 20:0:15:127698,paved,reverse-safe,-1.2357634640038337,-2.24068249150025,1.4917580367134307,-0.01868966723604894,-0.009895992774195445,-0.06958112076317823,0.6249999243335447,0.5555555555555557,0.6250000475992398,0
243,22-3-2023 20:0:15:175751,paved,reverse-safe,-1.6023167686755115,-1.4290194090983053,1.8809718954403245,-0.018772296675521372,0.01087312270183226,-0.06003235425453862,0.8749996216677244,0.5555555555555557,0.3749999524007594,0
244,22-3-2023 20:0:15:215692,paved,reverse-safe,-1.0221977179410275,-1.50794452853176,1.4724752422644714,-0.04039297778000255,-0.004380648365776148,-0.05383448021183066,0.8749996216677244,0.5555555555555557,0.3749999524007594,0
245,22-3-2023 20:0:15:263693,paved,reverse-safe,-0.8457572347356677,-1.1050340985243257,1.0464663639660416,-0.05348594194601346,0.009999754250284636,-0.048218384743639285,0.4999983353379899,0.5555555555555557,0.4999992384121555,0
246,22-3-2023 20:0:15:311687,paved,reverse-safe,-0.9739075165646255,-0.8318203048001745,-1.1045993783948307,-0.0778775052645873,0.049790077821525225,-0.059322228818244,0.4999983353379899,0.5555555555555557,0.4999992384121555,0
247,22-3-2023 20:0:15:359680,paved,reverse-safe,-0.9619288114387818,-0.9304890449198074,-2.422191011683659,-0.1163246243563105,0.027378694224681362,-0.06479372006102442,0.4999983353379899,0.5555555555555557,0.7499993970762894,0
248,22-3-2023 20:0:15:399722,paved,reverse-safe,-0.12929525931782804,-1.0946442746134526,-3.091048153032552,-0.11665384258057897,0.01334722363733543,-0.06323782470593252,0.4999983353379899,0.5555555555555557,0.7499993970762894,0
249,22-3-2023 20:0:15:447703,paved,reverse-safe,-0.4136734379677809,-2.079621605626765,-3.407222580522317,-0.11375503621573298,0.03389466563704894,-0.04601560877746741,0.3750000756664553,0.6666666126338374,0.2500000951984803,0
250,22-3-2023 20:0:15:495661,paved,reverse-safe,-0.8635198439818882,-2.3697557689618893,-2.0888227275208906,-0.12411054422873366,0.01734532876114642,-0.03868586878850216,0.3750000756664553,0.6666666126338374,0.2500000951984803,0
251,22-3-2023 20:0:15:535654,paved,reverse-safe,-1.3135276991512446,-2.55154694276438,0.5845507756806447,-0.08280502082359721,-0.023892522508569766,-0.026295351942046644,0.6249999243335447,0.5555555555555557,0.6250000475992398,0
252,22-3-2023 20:0:15:583686,paved,reverse-safe,-1.0881231459058571,-2.6520358652246956,0.41430129294453855,-0.04399468979248911,-0.03765984276179783,-0.0195069422624596,0.6249999243335447,0.5555555555555557,0.6250000475992398,0
253,22-3-2023 20:0:15:623684,paved,reverse-safe,-1.1348521550132609,-2.565732767466526,0.46401822188885866,-0.04602120947416665,-0.029725961236885885,-0.011917410298030982,0.749999092002539,0.4444442823459566,0.6250000475992398,0
254,22-3-2023 20:0:15:671675,paved,reverse-safe,-1.0286684213386135,-2.057701948675671,1.4808611005626036,-0.03254133356461137,-0.034112190544189604,-0.0031725153382469017,0.749999092002539,0.4444442823459566,0.6250000475992398,0
255,22-3-2023 20:0:15:720875,paved,reverse-safe,-0.718310249990096,-2.0122341162531874,1.0352722388660285,-0.0639493037819178,-0.04781437904322704,0.0056018097526902046,0.6249999243335447,0.33333319825125984,0.8749996985381452,0
256,22-3-2023 20:0:15:762681,paved,reverse-safe,-0.8402646933087121,-1.1926013001784082,0.997365071904191,-0.061918136289681014,-0.015840978491918005,0.016873523189667256,0.6249999243335447,0.33333319825125984,0.8749996985381452,0
257,22-3-2023 20:0:15:810657,paved,reverse-safe,-0.0905164564582226,-1.6328989377823149,-0.6592142323378037,-0.07557256773567454,0.03718162637628025,0.007651452240766203,0.6249999243335447,0.6666666126338374,0.2500000951984803,0
258,22-3-2023 20:0:15:850710,paved,reverse-safe,-0.6525769473969859,-0.9227595322563222,-1.1032581655241798,-0.09024153066898744,0.03815099158581938,0.009380723772323542,0.6249999243335447,0.6666666126338374,0.2500000951984803,0
259,22-3-2023 20:0:15:900739,paved,reverse-safe,-0.35776342277256157,-0.5719498939659041,-1.6342508979400003,-0.09693153491127554,0.026826069357006033,0.012621856208144246,0.4999983353379899,0.5555555555555557,0.4999992384121555,0
260,22-3-2023 20:0:15:948805,paved,reverse-safe,-0.6317428614994123,-1.274125278506895,-1.5008721435879055,-0.07492750134866207,0.04134977006547218,0.032537401504242634,0.4999983353379899,0.5555555555555557,0.4999992384121555,0
261,22-3-2023 20:0:15:995248,paved,reverse-safe,-0.9363998137357508,-2.1416961555224074,-2.098116418893203,-0.07869734743808607,0.05073333851493646,0.05124815400099731,0.749999092002539,0.6666666126338374,0.6250000475992398,0
262,22-3-2023 20:0:16:40775,paved,reverse-safe,-0.7013748296935833,-2.929508050901009,-0.8305072822809103,-0.07695325078247467,-0.026767813384219158,0.06742543360240845,0.749999092002539,0.6666666126338374,0.6250000475992398,0
263,22-3-2023 20:0:16:80819,paved,reverse-safe,-0.35509965390177645,-2.4474802128013597,-0.02601880507933929,-0.07548302655259843,-0.04526945604016441,0.06623272625901465,0.6249999243335447,0.6666666126338374,0.3749999524007594,0
264,22-3-2023 20:0:16:128816,paved,reverse-safe,-0.20652977028161645,-1.9148220732277825,1.6621227103525087,-0.06437051680425318,-0.04645915764256707,0.0644139209502034,0.6249999243335447,0.6666666126338374,0.3749999524007594,0
265,22-3-2023 20:0:16:168758,paved,reverse-safe,0.2030876338268574,-2.135410581890377,2.1485942709244368,-0.06860755446101943,-0.05191893755436729,0.060077362248946435,0.4999983353379899,0.6666666126338374,0.6250000475992398,0
266,22-3-2023 20:0:16:220497,paved,reverse-safe,0.35434331040297157,-2.2412161142249944,2.768487572268596,-0.07073717444445456,-0.03170793596407167,0.06627542546140858,0.4999983353379899,0.6666666126338374,0.6250000475992398,0
267,22-3-2023 20:0:16:258812,paved,reverse-safe,-0.11436949321273598,-1.407148851714384,4.397610445650515,-0.07180504336947066,-0.024008595324624845,0.056431520682521566,0.3750000756664553,0.6666666126338374,0.3749999524007594,0
268,22-3-2023 20:0:16:307990,paved,reverse-safe,0.3477557341441591,-1.1393539601771623,1.749355706309354,-0.0912786251904233,-0.024473488950333834,0.05386684060917365,0.3750000756664553,0.6666666126338374,0.3749999524007594,0
269,22-3-2023 20:0:16:355996,paved,reverse-safe,0.32702670451493965,-1.0637660220423308,-1.1542068530676195,-0.10842976739144175,0.008432509209572898,0.04999275615657925,0.6249999243335447,0.6666666126338374,0.2500000951984803,0
270,22-3-2023 20:0:16:395983,paved,reverse-safe,0.14258187834279,-1.3947318465560223,-2.4590345996312193,-0.11595233679295042,0.03445402423220785,0.052790797279869,0.6249999243335447,0.6666666126338374,0.2500000951984803,0
271,22-3-2023 20:0:16:444007,paved,reverse-safe,-0.11762018005411029,-2.200928878190293,-3.3132523351768444,-0.09599800882394417,0.02641546621706755,0.06616176194144338,0.6249999243335447,0.7777776697121191,0.4999992384121555,0
272,22-3-2023 20:0:16:491974,paved,reverse-safe,0.5137095513972603,-2.7179905349865487,-1.4800203298200267,-0.0562074258638658,-0.024056244571754877,0.05959261171079878,0.6249999243335447,0.7777776697121191,0.4999992384121555,0
273,22-3-2023 20:0:16:539971,paved,reverse-safe,0.1923866580490312,-1.869988759327399,0.6168469912722567,-0.02781682228084893,-0.04224131779967208,0.04940960763857705,0.8749996216677244,0.7777776697121191,0.3749999524007594,0
274,22-3-2023 20:0:16:580017,paved,reverse-safe,0.2381782455426616,-1.9155092243047562,1.9832826241070007,-0.025196489677817575,-0.06037733165768607,0.036602886293200895,0.8749996216677244,0.7777776697121191,0.3749999524007594,0
275,22-3-2023 20:0:16:628009,paved,reverse-safe,-0.2884988808101669,-1.4255010139334692,2.2186537019148886,-0.017592005725226276,-0.01897545328683474,0.04424858364449061,0.749999092002539,0.8888889429217183,0.3749999524007594,0
276,22-3-2023 20:0:16:667954,paved,reverse-safe,-0.4282154109082909,-0.9545378747296078,0.19869533508474646,-0.050439680565783684,-0.035433877770441116,0.049635761641210016,0.749999092002539,0.8888889429217183,0.3749999524007594,0
277,22-3-2023 20:0:16:715999,paved,reverse-safe,-0.4087888642415742,-1.9936207874802274,-1.38813759178403,-0.10375805662371429,-0.011550972437996097,0.0503619144225736,0.4999983353379899,0.6666666126338374,0.6250000475992398,0
278,22-3-2023 20:0:16:763985,paved,reverse-safe,0.42480251604885194,-2.3169663123203255,-2.076818932196633,-0.12482795796749346,0.008211759944774959,0.03585344056170196,0.4999983353379899,0.6666666126338374,0.6250000475992398,0
279,22-3-2023 20:0:16:803926,paved,reverse-safe,0.3272392983072535,-3.0666904843425797,-2.7257984249460625,-0.1035766157715816,0.030026616032665362,0.032448049152301345,0.4999983353379899,0.7777776697121191,0.3749999524007594,0
280,22-3-2023 20:0:16:851925,paved,reverse-safe,0.09159363156617767,-2.990441984626533,-1.9018966907281811,-0.0741478073556467,0.022618939615172445,0.03291444063537419,0.4999983353379899,0.7777776697121191,0.3749999524007594,0
281,22-3-2023 20:0:16:899920,paved,reverse-safe,-0.06519212503704791,-1.9336360131099124,-0.4514812654033522,-0.060914094391883826,0.006128891004748466,0.03591287439254627,0.6249999243335447,0.5555555555555557,0.4999992384121555,0
282,22-3-2023 20:0:16:939947,paved,reverse-safe,0.17005861329442415,-2.0914641647341323,0.29853589204018904,-0.0764752422680793,-0.006894377911316807,0.038332492460736806,0.6249999243335447,0.5555555555555557,0.4999992384121555,0
283,22-3-2023 20:0:16:987908,paved,reverse-safe,-0.31604959392128196,-1.518707954136934,0.7823307204148686,-0.05461495311604091,-0.005664268632536622,0.0345166931259404,0.6249999243335447,0.6666666126338374,0.6250000475992398,0
284,22-3-2023 20:0:17:35946,paved,reverse-safe,-0.4087513126842135,-1.76647781870332,-1.270055226714975,-0.07347717857115062,0.002767848200141856,0.02116275034438278,0.6249999243335447,0.6666666126338374,0.6250000475992398,0
285,22-3-2023 20:0:17:83946,paved,reverse-safe,-0.7107656404404437,-1.7113850120604654,-1.2411577267794294,-0.06741473390131038,0.001686426603697834,0.017964007056554963,0.6249999243335447,0.6666666126338374,0.3749999524007594,0
286,22-3-2023 20:0:17:129402,paved,reverse-safe,-0.5726935363082855,-1.5702782259792167,0.1812699945259275,-0.05281468713569016,0.030550010073643642,0.011035032769891606,0.6249999243335447,0.6666666126338374,0.3749999524007594,0
287,22-3-2023 20:0:17:174925,paved,reverse-safe,-0.363098023264839,-1.2579850229629217,1.0596118440376237,-0.036767209707104793,0.02593246515703182,0.01228414717555927,0.3750000756664553,0.8888889429217183,0.6250000475992398,0
288,22-3-2023 20:0:17:214919,paved,reverse-safe,-0.8431751893408154,-0.7222248133401747,2.1801942716022724,-0.028375380980369336,0.014064185853711886,0.014654204972758742,0.3750000756664553,0.8888889429217183,0.6250000475992398,0
289,22-3-2023 20:0:17:262928,paved,reverse-safe,-0.7970413951410916,-0.24907600139281172,1.8952604550549812,-0.05529539078432503,0.013432796069263276,0.01952983675786185,0.6249999243335447,0.5555555555555557,0.6250000475992398,0
290,22-3-2023 20:0:17:302911,paved,reverse-safe,-0.7794454760660957,-0.3767048904067126,-1.5754990364899064,-0.08963479852379172,-0.030817281635888472,0.02754990768023409,0.6249999243335447,0.5555555555555557,0.6250000475992398,0
291,22-3-2023 20:0:17:350904,paved,reverse-safe,-1.3345261192161342,-2.0939886275536357,-1.7157499283267863,-0.125931796762075,0.03094786888841555,0.03021839660774874,0.4999983353379899,0.5555555555555557,0.3749999524007594,0
292,22-3-2023 20:0:17:398905,paved,reverse-safe,-0.9988785766101618,-2.382274162943446,-0.36344883372774883,-0.09368104870615049,0.01632422504226041,0.02541976714718474,0.4999983353379899,0.5555555555555557,0.3749999524007594,0
293,22-3-2023 20:0:17:438941,paved,reverse-safe,-0.9043541752354095,-2.0042845158833646,0.4902278833395126,-0.052952048065392596,-0.0063205495795607795,0.017070327345608448,0.4999983353379899,0.6666666126338374,0.3749999524007594,0
294,22-3-2023 20:0:17:486887,paved,reverse-safe,-0.1995556519119226,-1.801862221640634,0.7812129316950018,-0.055220237851746644,0.008109453484309043,0.013580935002467306,0.4999983353379899,0.6666666126338374,0.3749999524007594,0
295,22-3-2023 20:0:17:534881,paved,reverse-safe,-0.8807192890173425,-2.23255687713348,-1.913284650434311,-0.10518475780165429,0.04478414813165098,0.010642972494180317,0.749999092002539,0.5555555555555557,0.3749999524007594,0
296,22-3-2023 20:0:17:582872,paved,reverse-safe,-1.0612696160250374,-3.0407755228140645,-2.104706157027974,-0.08831514425650483,0.00023454336474321158,0.023526710475614082,0.749999092002539,0.5555555555555557,0.3749999524007594,0
297,22-3-2023 20:0:17:622868,paved,reverse-safe,-0.45002395831418895,-3.018930562613597,-0.035126127546750485,-0.05079867426691736,-0.019901703122844748,0.02816912644825265,0.749999092002539,0.7777776697121191,0.8749996985381452,0
298,22-3-2023 20:0:17:670865,paved,reverse-safe,-0.276228503996629,-1.8586321849622556,0.8696729564575121,-0.025294189505847588,-0.010171477401655325,0.028647477279467738,0.749999092002539,0.7777776697121191,0.8749996985381452,0
299,22-3-2023 20:0:17:718859,paved,reverse-safe,-0.28186767832579424,-1.4127861845263712,-1.8096978613842232,-0.05479290854457622,0.02748536286962075,0.023652615535793016,0.6249999243335447,0.6666666126338374,0.6250000475992398,0
300,22-3-2023 20:0:17:758900,paved,reverse-safe,-0.007849705796604711,-1.3869907852426138,-2.6268824732829765,-0.12521882830656822,-0.00837039269977155,0.018969945605353748,0.6249999243335447,0.6666666126338374,0.6250000475992398,0
301,22-3-2023 20:0:17:806894,paved,reverse-safe,0.06679174750681129,-2.769621917743584,-2.270157177968959,-0.11096430195332327,-0.008264271200154395,0.014746139699156204,0.749999092002539,0.8888889429217183,0.3749999524007594,0
302,22-3-2023 20:0:17:854852,paved,reverse-safe,-1.099287043081708,-1.6242081301587719,0.057540116666932484,-0.07290875035980524,-0.025456680447542165,0.022048689303406966,0.749999092002539,0.8888889429217183,0.3749999524007594,0
303,22-3-2023 20:0:17:894875,paved,reverse-safe,-1.430223236430261,-1.9644235752832524,1.0359427374677135,-0.06244505715842048,-0.030718112186812002,0.025899732855211455,0.749999092002539,0.5555555555555557,0.4999992384121555,0
304,22-3-2023 20:0:17:942830,paved,reverse-safe,-1.1566898628963793,-1.0041692224288261,0.6403200904906929,-0.0858383402644426,-0.027320560555990612,0.02860303666863903,0.749999092002539,0.5555555555555557,0.4999992384121555,0
305,22-3-2023 20:0:17:982880,paved,reverse-safe,-0.16949359123791297,-1.2286622883763854,-1.46900102179891,-0.09952520071857368,-0.025794955849022205,0.016174373202161585,0.6249999243335447,0.7777776697121191,0.4999992384121555,0
306,22-3-2023 20:0:18:30851,paved,reverse-safe,-0.10261984094483442,-1.5218469701425996,-2.6780090229951417,-0.08889506247001816,-0.004207698922345394,0.017725535409639396,0.6249999243335447,0.7777776697121191,0.4999992384121555,0
307,22-3-2023 20:0:18:78825,paved,reverse-safe,0.08847366576681898,-1.535327190594499,-0.4403845176786887,-0.06851491911760628,-0.01865583722627516,0.021973709472244134,0.4999983353379899,0.6666666126338374,0.7499993970762894,0
308,22-3-2023 20:0:18:126810,paved,reverse-safe,-0.4140076286828716,-0.7259805017349632,1.2246730770527605,-0.034953532098707024,-0.024706578670498407,0.03245009963333251,0.4999983353379899,0.6666666126338374,0.7499993970762894,0
309,22-3-2023 20:0:18:166858,paved,reverse-safe,-0.44381339967808475,-0.4733597175961667,1.818221624639032,-0.04635144126070066,-0.0053969700213407495,0.0325594660291784,0.4999983353379899,0.6666666126338374,0.3749999524007594,0
310,22-3-2023 20:0:18:214793,paved,reverse-safe,0.2680248886865555,-1.1729122699976036,-1.5961453857538026,-0.08628062294616895,-0.006885632737387969,0.036327916633435126,0.4999983353379899,0.6666666126338374,0.3749999524007594,0
311,22-3-2023 20:0:18:262791,paved,reverse-safe,0.5771011637369945,-2.0277741327493075,-1.9405954321065793,-0.11967417480633907,-0.005661238315082532,0.030473313259680366,0.749999092002539,0.5555555555555557,0.6250000475992398,0
312,22-3-2023 20:0:18:302781,paved,reverse-safe,0.5237306497558551,-2.1899447754658783,-3.9117606299067766,-0.10273317374751377,-0.0012343624162775325,0.031546747532043916,0.749999092002539,0.5555555555555557,0.6250000475992398,0
313,22-3-2023 20:0:18:350776,paved,reverse-safe,-0.2213249590186972,-1.730843091890503,0.2808387790561335,-0.04997048588643463,-0.047385983390289724,0.032970210691971,0.749999092002539,0.6666666126338374,0.4999992384121555,0
314,22-3-2023 20:0:18:398771,paved,reverse-safe,0.32903389060518184,-1.7006105782239656,0.3423277602378389,-0.030503198160868144,-0.013951644716794935,0.03095557095446425,0.749999092002539,0.6666666126338374,0.4999992384121555,0
315,22-3-2023 20:0:18:438815,paved,reverse-safe,-0.20671235729501425,-0.897729080656756,1.9603930518995123,-0.04202693543654301,-0.010372075730417962,0.03810435985399119,0.749999092002539,0.5555555555555557,0.6250000475992398,0
316,22-3-2023 20:0:18:486816,paved,reverse-safe,-0.6843203628271064,-1.0671362758471166,1.333860586003016,-0.061644138912768966,0.0033989028985710133,0.04599196154546853,0.749999092002539,0.5555555555555557,0.6250000475992398,0
317,22-3-2023 20:0:18:534765,paved,reverse-safe,-0.5672816462065317,-0.43489363329850783,0.34747675011342805,-0.09689685106397795,-0.010625515698683622,0.04612877830334322,0.3750000756664553,0.7777776697121191,0.7499993970762894,0
318,22-3-2023 20:0:18:574808,paved,reverse-safe,0.3413235914516932,-0.9717178876471573,-1.8077590362777562,-0.10978321413478637,0.005747281735352732,0.029647267089219484,0.3750000756664553,0.7777776697121191,0.7499993970762894,0
319,22-3-2023 20:0:18:622771,paved,reverse-safe,0.19524677676586102,-1.3826262262917983,-2.17996638275124,-0.07268937248411297,0.009158299167803028,0.030738748558455636,0.6249999243335447,0.5555555555555557,0.4999992384121555,0
320,22-3-2023 20:0:18:670785,paved,reverse-safe,0.11945120060824466,-2.4968686887736116,-2.8620117160413843,-0.08290243625995486,-0.0035822766560027353,0.032523206077948195,0.6249999243335447,0.5555555555555557,0.4999992384121555,0
321,22-3-2023 20:0:18:718741,paved,reverse-safe,-0.2159173776004742,-2.3225015515869827,-2.860539988669632,-0.09340787416511404,-0.014262685523105998,0.026008475925988733,0.8749996216677244,0.6666666126338374,0.4999992384121555,0
322,22-3-2023 20:0:18:758733,paved,reverse-safe,-0.708274018479812,-1.9342978132338473,1.1484091069362852,-0.07002859294299964,-0.027013073654485874,0.023307701892966347,0.8749996216677244,0.6666666126338374,0.4999992384121555,0
323,22-3-2023 20:0:18:806726,paved,reverse-safe,-1.1444242723739364,-2.4951316531591456,3.1434274916725857,-0.06678902141143714,0.02948156922437138,0.027207448020514367,0.749999092002539,0.5555555555555557,0.2500000951984803,0
324,22-3-2023 20:0:18:846714,paved,reverse-safe,-1.6042135741519958,-2.103156491035893,2.7358247635409727,-0.06410940858388803,0.038614983443678044,0.028149339461542484,0.749999092002539,0.5555555555555557,0.2500000951984803,0
325,22-3-2023 20:0:18:894706,paved,reverse-safe,-0.9211319479482896,-1.5924785497247498,2.7521099146439747,-0.03436107344530348,-0.01861085230858072,0.01922232606272499,0.6249999243335447,0.7777776697121191,0.3749999524007594,0
326,22-3-2023 20:0:18:942705,paved,reverse-safe,-1.9188031975820141,-1.5860817355905121,4.902162728779887,0.0037587908352741187,0.037613755839879394,0.02567064103991955,0.6249999243335447,0.7777776697121191,0.3749999524007594,0
327,22-3-2023 20:0:18:982701,paved,reverse-safe,-2.3134840681999775,-1.1973925042697595,3.990216280956826,-0.010534921011335754,0.0595331725119605,0.03563527797481006,0.749999092002539,0.4444442823459566,0.6250000475992398,0
328,22-3-2023 20:0:19:30697,paved,reverse-safe,-0.9328542477864279,-0.6184380546315441,2.697503228822357,-0.07037336094480227,0.01648395770216747,0.03148665220964331,0.749999092002539,0.4444442823459566,0.6250000475992398,0
329,22-3-2023 20:0:19:78690,paved,reverse-safe,-0.2756160306670984,0.38067649603678455,2.476836423627503,-0.07858603760286767,-0.032719002733895754,0.026196738786524704,0.8749996216677244,0.6666666126338374,0.3749999524007594,0
330,22-3-2023 20:0:19:118684,paved,reverse-safe,0.12381890216873082,0.6979866051574264,0.20808079443576233,-0.07196012024637506,0.03516194929390195,0.016440037782148642,0.8749996216677244,0.6666666126338374,0.3749999524007594,0
331,22-3-2023 20:0:19:166678,paved,reverse-safe,-0.019689138696854153,-0.11354329077889491,-0.7923160624534782,-0.08177327269780468,0.01813276767793888,0.008040371869268193,0.749999092002539,0.7777776697121191,0.7499993970762894,0
332,22-3-2023 20:0:19:214672,paved,reverse-safe,0.32966996898950995,-0.570984782669283,-1.6303684460705146,-0.06895793775647868,0.010840005854113263,0.004889924830686497,0.749999092002539,0.7777776697121191,0.7499993970762894,0
333,22-3-2023 20:0:19:262661,paved,reverse-safe,-0.3377697694492551,-0.8961696606461926,-1.928343166538676,-0.0858988640079705,0.0010030639396579402,0.015215367443939181,0.8749996216677244,0.7777776697121191,0.6250000475992398,0
334,22-3-2023 20:0:19:302656,paved,reverse-safe,0.5125704472515193,-1.1549703397757465,-2.1014038959481205,-0.10450129673542458,0.011865281168298426,0.013141903028804955,0.8749996216677244,0.7777776697121191,0.6250000475992398,0
335,22-3-2023 20:0:19:350650,paved,reverse-safe,-0.10043182630606462,-1.1843411304338447,-0.9529005126460695,-0.10171450307155896,0.01980627006225929,0.00481038894554469,0.8749996216677244,0.8888889429217183,0.7499993970762894,0
336,22-3-2023 20:0:19:398648,paved,reverse-safe,-0.6587131604597232,-0.9322958903552656,-0.7557479173878988,-0.05582404900124064,0.00828708024772265,0.008435427151003339,0.8749996216677244,0.8888889429217183,0.7499993970762894,0
337,22-3-2023 20:0:19:438639,paved,reverse-safe,-0.5039659269960347,-1.3954243491684892,-1.4364368821108076,-0.049281196942781214,0.012649052768238269,0.004843875341954986,0.8749996216677244,0.6666666126338374,0.7499993970762894,0
338,22-3-2023 20:0:19:486633,paved,reverse-safe,-0.2219770520372275,-1.0914612783902347,-1.8478383348269096,-0.061776555352898874,0.012942433896518965,0.005425821145482184,0.8749996216677244,0.6666666126338374,0.7499993970762894,0
339,22-3-2023 20:0:19:526627,paved,reverse-safe,-0.23003664577375119,-1.1490576197280817,-0.9622612013653792,-0.06720649385001329,0.004516090447965724,0.009529006162113288,0.749999092002539,0.7777776697121191,0.4999992384121555,0
340,22-3-2023 20:0:19:574624,paved,reverse-safe,-0.8776743356845116,-0.32609423646942315,0.15047614875937854,-0.05982464242482215,0.007513575685632858,0.013737496958667085,0.749999092002539,0.7777776697121191,0.4999992384121555,0
341,22-3-2023 20:0:19:622666,paved,reverse-safe,-1.4391330505692843,-0.13540829298437076,1.784709369927982,-0.0669060117745926,0.026304214877920198,0.009451266699514052,1.0,0.4444442823459566,0.7499993970762894,0
342,22-3-2023 20:0:19:662655,paved,reverse-safe,-1.8815332469912196,0.022335404532106667,1.8543249090227176,-0.08043159687199215,0.026202130503864447,0.005003709863010092,1.0,0.4444442823459566,0.7499993970762894,0
343,22-3-2023 20:0:19:718606,paved,reverse-safe,-0.8773200140767983,0.16355826839519094,0.8947410348418174,-0.10072091875088296,-0.0065526779454027975,-0.0021626155335088522,0.6249999243335447,0.33333319825125984,0.4999992384121555,0
344,22-3-2023 20:0:19:758620,paved,reverse-safe,-0.5735271565520359,-0.37129568340359487,0.24103747809907217,-0.08380932951352282,0.02125559252577244,-0.010056052079628192,0.6249999243335447,0.33333319825125984,0.4999992384121555,0
345,22-3-2023 20:0:19:806595,paved,reverse-safe,-0.874812420542329,-0.2852425110517559,-0.43582049196551087,-0.08309269006598312,-0.010006953802052406,-0.008239698453905632,1.0,0.7777776697121191,0.6250000475992398,0
346,22-3-2023 20:0:19:846593,paved,reverse-safe,-0.14841071580250143,-0.2509190842878732,-2.1703189662443876,-0.07771974260441557,0.0068320660762195735,-0.025050524723409146,1.0,0.7777776697121191,0.6250000475992398,0
347,22-3-2023 20:0:19:894641,paved,reverse-safe,-0.7468281748786567,-0.7699984255994852,-1.647554433029193,-0.08211214261686227,0.03007067003493825,-0.03135457603123862,0.6249999243335447,0.7777776697121191,0.4999992384121555,0
348,22-3-2023 20:0:19:942587,paved,reverse-safe,-0.7629763021028069,-0.7075591785462554,-2.179291570314839,-0.09031100812926462,0.024199959482588827,-0.023678542868798384,0.6249999243335447,0.7777776697121191,0.4999992384121555,0
349,22-3-2023 20:0:19:982625,paved,reverse-safe,-0.6561243716971836,-0.7617232355004963,-2.713022832154524,-0.11270678475786883,-0.0035915043104198068,-0.02698852520268895,0.6249999243335447,0.5555555555555557,0.6250000475992398,0
350,22-3-2023 20:0:20:30566,paved,reverse-safe,-0.7214491779431647,-1.2833234684803476,-2.4888637544993983,-0.09880318716273657,-0.0076525957441502335,-0.020803882563777902,0.6249999243335447,0.5555555555555557,0.6250000475992398,0
351,22-3-2023 20:0:20:78589,paved,reverse-safe,-0.5135796092168287,-1.259427940286513,-2.475141855552934,-0.07608628716435435,-0.024548763347118165,-0.017146634052119247,0.4999983353379899,0.7777776697121191,0.6250000475992398,0
352,22-3-2023 20:0:20:118579,paved,reverse-safe,-0.5967200119249647,-0.3457469175967237,0.7055672235879875,-0.050767478318039405,0.005099782002795001,-0.02197193400014741,0.4999983353379899,0.7777776697121191,0.6250000475992398,0
353,22-3-2023 20:0:20:166573,paved,reverse-safe,-0.4984636903320367,-1.1796720554375948,1.6372140474580814,-0.032186749325067876,-0.0034221980139413667,-0.029975258194063506,0.749999092002539,0.7777776697121191,0.7499993970762894,0
354,22-3-2023 20:0:20:214547,paved,reverse-safe,-0.7589818792483638,-0.4077801408368592,1.4955637973542415,-0.06329936838944979,6.363043333888502e-05,-0.03370447833588627,0.749999092002539,0.7777776697121191,0.7499993970762894,0
355,22-3-2023 20:0:20:262585,paved,reverse-safe,-0.46742980655671906,-0.4186269683981783,1.7225363488242484,-0.05869090514205406,0.005100295367589804,-0.043475047206841484,0.749999092002539,0.5555555555555557,0.3749999524007594,0
356,22-3-2023 20:0:20:302581,paved,reverse-safe,-0.6703994288566985,-0.6731610678523601,2.063198009630741,-0.054136580982827906,0.004409366710668992,-0.03535296084336803,0.749999092002539,0.5555555555555557,0.3749999524007594,0
357,22-3-2023 20:0:20:350548,paved,reverse-safe,-0.32862720895759356,-0.27445394388550637,-0.16870469240427166,-0.08305153599127393,0.03010161746412872,-0.045800490504194005,0.8749996216677244,0.7777776697121191,0.7499993970762894,0
358,22-3-2023 20:0:20:398536,paved,reverse-safe,-0.635620043686707,-0.6660562166199229,-1.7139712565838265,-0.07381148253202678,0.04248479044145302,-0.05638512510813634,0.8749996216677244,0.7777776697121191,0.7499993970762894,0
359,22-3-2023 20:0:20:438563,paved,reverse-safe,-0.9607076238172225,-1.0692154417101243,-1.8885436196081995,-0.07584545036832259,0.04433952316653527,-0.05901810344830944,0.749999092002539,0.8888889429217183,0.4999992384121555,0
360,22-3-2023 20:0:20:486557,paved,reverse-safe,-0.7456293600647284,-1.0207132423209755,-1.8051918298962544,-0.07953624496312839,0.02705641362072127,-0.06131612486938783,0.749999092002539,0.8888889429217183,0.4999992384121555,0
361,22-3-2023 20:0:20:526554,paved,reverse-safe,-0.9338508905960262,-1.335008581598613,-1.648346565093599,-0.08024319846146191,-0.009214992773088387,-0.060481282211618165,0.749999092002539,0.5555555555555557,0.8749996985381452,0
362,22-3-2023 20:0:20:574529,paved,reverse-safe,-0.7290088366003191,-1.250457669110352,-0.9990117929809805,-0.0606571413992225,-0.03361815826457315,-0.0603810028517936,0.749999092002539,0.5555555555555557,0.8749996985381452,0
363,22-3-2023 20:0:20:622505,paved,reverse-safe,-1.3909468747168976,-0.2107535770254323,0.7154858710807226,-0.009131928555423656,-0.020319596718881693,-0.06496850729024013,0.749999092002539,0.6666666126338374,0.3749999524007594,0
364,22-3-2023 20:0:20:662537,paved,reverse-safe,-0.8475728523759484,-0.4271742910915054,2.1972009584572936,-0.002292087948649101,-0.005269403795653729,-0.08124430765119767,0.749999092002539,0.6666666126338374,0.3749999524007594,0
365,22-3-2023 20:0:20:710484,paved,reverse-safe,-0.5952836780521924,0.06522089242684342,2.7083626280695703,-0.03822802527892477,-0.0035347857261190966,-0.09128056532811038,0.6249999243335447,0.7777776697121191,0.6250000475992398,0
366,22-3-2023 20:0:20:758476,paved,reverse-safe,-0.9722595906657876,-0.039495423547934005,0.9650476973614728,-0.0874496827232308,0.026304592418771578,-0.09586369079903424,0.6249999243335447,0.7777776697121191,0.6250000475992398,0
367,22-3-2023 20:0:20:806471,paved,reverse-safe,-0.7272182987278736,-0.6402212861237362,-1.0916447847269013,-0.10838425762585059,0.014541441340154553,-0.10325328551696278,1.0,0.6666666126338374,0.7499993970762894,0
368,22-3-2023 20:0:20:846475,paved,reverse-safe,-0.641297886587699,-2.0337628260124267,-1.3102318832903987,-0.09717589436022951,-0.01302945877312273,-0.09860353220822587,1.0,0.6666666126338374,0.7499993970762894,0
369,22-3-2023 20:0:20:894464,paved,reverse-safe,-0.7999075878814708,-1.479589484735207,-0.2725093666351255,-0.04899170436286996,-0.017014121999264928,-0.100254679362595,1.0,0.7777776697121191,0.6250000475992398,0
370,22-3-2023 20:0:20:942457,paved,reverse-safe,-1.011258590340516,-0.8952479021113974,0.14143260313045564,-0.06079489466223777,0.05800755916578948,-0.11075577874009604,1.0,0.7777776697121191,0.6250000475992398,0
371,22-3-2023 20:0:20:982506,paved,reverse-safe,-1.174917764263341,-0.6179565629574721,1.0806506202172173,-0.039974908895565375,0.019609611334458724,-0.10856326516823567,0.749999092002539,0.5555555555555557,0.7499993970762894,0
372,22-3-2023 20:0:21:30500,paved,reverse-safe,-1.1374459488753712,-0.4625464163969674,1.6020428331585563,-0.05015970369608822,0.027189006221429453,-0.10658996004643154,0.749999092002539,0.5555555555555557,0.7499993970762894,0
373,22-3-2023 20:0:21:73674,paved,reverse-safe,-1.1507702864730471,-0.20436783535705155,2.161894123267084,-0.059416212437832225,0.036254825719673284,-0.10522274299825334,0.4999983353379899,0.7777776697121191,0.7499993970762894,0
374,22-3-2023 20:0:21:119487,paved,reverse-safe,-0.6770287138902811,-0.6341342754471297,-0.18367365274201353,-0.06765424194455533,0.031042074723185896,-0.1028127220661955,0.4999983353379899,0.7777776697121191,0.7499993970762894,0
375,22-3-2023 20:0:21:167521,paved,reverse-safe,-0.7635974425435182,-1.012624622119751,-0.7065850691919037,-0.06811663091028645,0.00835165425091687,-0.09952324843130393,0.749999092002539,0.6666666126338374,0.7499993970762894,0
376,22-3-2023 20:0:21:207501,paved,reverse-safe,-0.5834801943465354,-0.9674782133620021,-1.6528674183012568,-0.06154547963958153,0.0013589170306509439,-0.1005606931848535,0.749999092002539,0.6666666126338374,0.7499993970762894,0
377,22-3-2023 20:0:21:255511,paved,reverse-safe,-1.0197260476726213,-0.8435758296666572,-0.8369751136734002,-0.05102281846853438,-0.0038486657412780904,-0.10623739485212513,0.3750000756664553,0.8888889429217183,0.6250000475992398,0
378,22-3-2023 20:0:21:303505,paved,reverse-safe,-1.2203237358693435,-0.4345532924610855,0.9943372361064663,-0.03882119549594646,-0.01713950045421056,-0.10634923335084845,0.3750000756664553,0.8888889429217183,0.6250000475992398,0
379,22-3-2023 20:0:21:351461,paved,reverse-safe,-1.395585176120555,-0.1723863444156425,2.572009345983451,-0.054728523915591076,-0.019830232408829394,-0.10727458619404666,0.6249999243335447,0.6666666126338374,0.6250000475992398,0
380,22-3-2023 20:0:21:391493,paved,reverse-safe,-1.1242997968602542,-0.7180931203103957,0.6609526711461204,-0.058116884373693146,0.012130002581111885,-0.10207413149044983,0.6249999243335447,0.6666666126338374,0.6250000475992398,0
381,22-3-2023 20:0:21:439453,paved,reverse-safe,-0.8213097056676564,-1.1862487157982047,-0.3043897914759821,-0.08332459386014793,0.0012762372115334396,-0.10834041059424093,0.749999092002539,0.5555555555555557,0.7499993970762894,0
382,22-3-2023 20:0:21:487482,paved,reverse-safe,0.0015452453832208723,-0.7817815422564004,-0.9534053952793703,-0.09107190763672914,-0.017277717458920244,-0.11593437802223876,0.749999092002539,0.5555555555555557,0.7499993970762894,0
383,22-3-2023 20:0:21:527437,paved,reverse-safe,0.27343381064200156,-0.07475370103138623,-0.58334799612897,-0.08145744696735233,-0.002126808653278812,-0.12628020371584966,0.6249999243335447,0.6666666126338374,0.4999992384121555,0
384,22-3-2023 20:0:21:575431,paved,reverse-safe,0.2226094550102991,-0.32889593616335955,-0.20376086272860788,-0.036462888047501585,0.004689588007794963,-0.11994830812006159,0.6249999243335447,0.6666666126338374,0.4999992384121555,0
385,22-3-2023 20:0:21:623417,paved,reverse-safe,-0.7399554057728588,0.36232359949339044,3.1291969175698147,-0.023671733725703428,0.011750783038157313,-0.09936004133323004,0.4999983353379899,0.7777776697121191,0.4999992384121555,0
386,22-3-2023 20:0:21:663459,paved,reverse-safe,-0.5067749198905692,-0.1604972687769377,2.8761567484044996,-0.025399161866601697,0.023595374621294643,-0.10050638988276085,0.4999983353379899,0.7777776697121191,0.4999992384121555,0
387,22-3-2023 20:0:21:711458,paved,reverse-safe,-0.7641253561097514,-0.3186334892777331,1.2151142506034167,-0.06633271412385094,0.03918601992772899,-0.10159912396240181,0.3750000756664553,0.4444442823459566,0.6250000475992398,0
388,22-3-2023 20:0:21:759419,paved,reverse-safe,-0.817497958803533,-1.3184143678627605,-0.3640705730900473,-0.09316012549132091,-0.005707888648305896,-0.10285084661230899,0.3750000756664553,0.4444442823459566,0.6250000475992398,0
389,22-3-2023 20:0:21:807395,paved,reverse-safe,-1.135338550931801,-1.0293920124415894,-1.0081479743073198,-0.09631747585643095,0.004666796380536494,-0.10468928786867096,0.3750000756664553,0.33333319825125984,0.4999992384121555,0
390,22-3-2023 20:0:21:847391,paved,reverse-safe,-0.7039931281660305,-1.133155671556239,-0.3139324049973624,-0.05737658415306932,-0.04238281934591935,-0.10796674394859415,0.3750000756664553,0.33333319825125984,0.4999992384121555,0
391,22-3-2023 20:0:21:895400,paved,reverse-safe,-0.875221181840203,0.06842948424299355,0.3744064394726865,-0.03511133675186323,-0.021094295128947244,-0.10763527980107204,0.749999092002539,0.6666666126338374,0.6250000475992398,0
392,22-3-2023 20:0:21:935434,paved,reverse-safe,-0.8862505789804948,0.051265365486541856,-0.47081296920400917,-0.0451655889411959,-0.004841229934404952,-0.09935022346308182,0.749999092002539,0.6666666126338374,0.6250000475992398,0
393,22-3-2023 20:0:21:983375,paved,reverse-safe,-0.8090936415442144,0.2331111457688198,-0.7689341938793375,-0.05455575512719111,0.008099921120160941,-0.108677892700573,0.6249999243335447,0.5555555555555557,0.6250000475992398,0
394,22-3-2023 20:0:22:31422,paved,reverse-safe,-0.4655791437765798,-0.6356728706040822,-1.5204016254855675,-0.08336891320546205,0.018153214915102495,-0.11924557708822829,0.6249999243335447,0.5555555555555557,0.6250000475992398,0
395,22-3-2023 20:0:22:71375,paved,reverse-safe,-0.6217856512558136,-0.07755936910876482,-0.5431703855966638,-0.07462638171228551,0.017460378372170265,-0.11014424670482514,0.6249999243335447,0.33333319825125984,0.7499993970762894,0
396,22-3-2023 20:0:22:119392,paved,reverse-safe,-0.4738103490456002,-0.5303987838907466,-1.4254253967836008,-0.06903897887299548,0.014609621315951546,-0.10516088246957783,0.6249999243335447,0.33333319825125984,0.7499993970762894,0
397,22-3-2023 20:0:22:167347,paved,reverse-safe,-0.7802390412825692,-0.48649386512000636,0.5601999600086045,-0.03141229801886757,0.010315152968877361,-0.09497302681160984,0.6249999243335447,0.4444442823459566,0.6250000475992398,0
398,22-3-2023 20:0:22:207348,paved,reverse-safe,-1.06846339972139,-0.33375631868936473,-0.8368082205708147,-0.042686085728035686,0.005868074749244716,-0.0896281469871982,0.6249999243335447,0.4444442823459566,0.6250000475992398,0
399,22-3-2023 20:0:22:255344,paved,reverse-safe,-1.5754615745555087,-0.39168745814490846,-1.2907421616823218,-0.10257359533451917,0.06245541578596482,-0.09175998821715947,0.3750000756664553,0.33333319825125984,0.4999992384121555,0
400,22-3-2023 20:0:22:303347,paved,reverse-safe,-1.5788512261395782,-1.6592281556337656,-1.666833436498975,-0.10566949181516008,0.005661905821955776,-0.10313167361694692,0.3750000756664553,0.33333319825125984,0.4999992384121555,0
401,22-3-2023 20:0:22:351332,paved,reverse-safe,-1.6503258024645793,-1.6048565936803136,-0.5117486483552172,-0.0822831542834782,-0.032118069950860126,-0.10176131132736801,0.4999983353379899,0.5555555555555557,0.8749996985381452,0
402,22-3-2023 20:0:22:391325,paved,reverse-safe,-1.8880837157876678,-0.9758395477359739,1.311741466436883,-0.05355379386551861,-0.02275813157650603,-0.10219416418544455,0.4999983353379899,0.5555555555555557,0.8749996985381452,0
403,22-3-2023 20:0:22:439373,paved,reverse-safe,-1.374315284318567,-1.274166821131062,-0.006740923114399111,-0.077369262147369,-0.006288215615321471,-0.10429329753063615,0.4999983353379899,0.5555555555555557,0.4999992384121555,0
404,22-3-2023 20:0:22:487314,paved,reverse-safe,-1.1878162667852978,-1.3462985779315317,-2.00946865733473,-0.08464959453575405,0.00916492967014026,-0.09592815652421648,0.4999983353379899,0.5555555555555557,0.4999992384121555,0
405,22-3-2023 20:0:22:527310,paved,reverse-safe,-0.8679204748779434,-0.9651158761405689,-1.7428918862323892,-0.08673731915811064,0.023047651027372093,-0.10807243250343941,0.4999983353379899,0.33333319825125984,0.7499993970762894,0
406,22-3-2023 20:0:22:575356,paved,reverse-safe,-0.3924423508010012,-1.2638848068549309,-1.206534501385025,-0.07964999409279917,0.023507280356981502,-0.11442325450270047,0.4999983353379899,0.33333319825125984,0.7499993970762894,0
407,22-3-2023 20:0:22:615297,paved,reverse-safe,-1.1388430069509763,-0.6074577531045875,1.6712809305554117,-0.035148856720973946,0.005566268190231916,-0.10391953016054646,0.3750000756664553,0.4444442823459566,0.4999992384121555,0
408,22-3-2023 20:0:22:663301,paved,reverse-safe,-0.9362012372342826,-0.6965789168524664,1.362736928963429,-0.03827515030596119,0.017623579457555105,-0.09331619810537702,0.3750000756664553,0.4444442823459566,0.4999992384121555,0
409,22-3-2023 20:0:22:711329,paved,reverse-safe,-0.7560230846838472,-0.38501917944007663,0.6011991825557347,-0.06392595990973943,0.021453287426117316,-0.09867360604795339,0.4999983353379899,0.0,0.7499993970762894,0
410,22-3-2023 20:0:22:751300,paved,reverse-safe,-0.9402831376787926,-0.1826769533376217,-0.11419077259340871,-0.06332586811706267,0.008335657342360577,-0.09601344888060165,0.4999983353379899,0.0,0.7499993970762894,0
411,22-3-2023 20:0:22:799313,paved,reverse-safe,-0.8607892100935282,-1.216462287790462,0.05667285154024468,-0.05232843651878472,-0.004737777368589408,-0.09192943461852006,0.24999969733417968,0.22222192504166077,0.6250000475992398,0
412,22-3-2023 20:0:22:847271,paved,reverse-safe,-1.1621297191629814,-0.4044656289007682,1.312552797396818,-0.04279869098554706,0.0022184450418675583,-0.09181437354129343,0.24999969733417968,0.22222192504166077,0.6250000475992398,0
413,22-3-2023 20:0:22:895262,paved,reverse-safe,-0.7023156464271576,-0.36849705134661903,0.4836983597671862,-0.06119521797522902,0.001670532202714538,-0.09426435312856182,0.3750000756664553,0.33333319825125984,0.4999992384121555,0
414,22-3-2023 20:0:22:935266,paved,reverse-safe,-0.629537996625699,-0.08374398220995605,-0.5398693108097192,-0.08701212835355908,-0.009658010746577902,-0.08566095833018479,0.3750000756664553,0.33333319825125984,0.4999992384121555,0
415,22-3-2023 20:0:22:983275,paved,reverse-safe,-0.7049959679764197,-0.4602020033703119,-1.0058316074398248,-0.06841435278340156,-0.02106657777255644,-0.07533425913330463,0.4999983353379899,0.4444442823459566,0.4999992384121555,0
416,22-3-2023 20:0:23:31248,paved,reverse-safe,-1.1862127675612286,-0.1992288337298037,-0.9150053080208903,-0.07084915038873289,0.014486100318169694,-0.06834439474034999,0.4999983353379899,0.4444442823459566,0.4999992384121555,0
417,22-3-2023 20:0:23:71293,paved,reverse-safe,-1.49862369386239,0.06825247680417124,0.3385665343084091,-0.03662169751942326,-0.0008663326417336983,-0.06228662114895432,0.6249999243335447,0.5555555555555557,0.4999992384121555,0
418,22-3-2023 20:0:23:119231,paved,reverse-safe,-1.2355341794186707,-0.17082166669414411,-0.4715478471280409,-0.05717678570397717,0.008955139138891663,-0.054228877353049015,0.6249999243335447,0.5555555555555557,0.4999992384121555,0
419,22-3-2023 20:0:23:167225,paved,reverse-safe,-0.8791940724723373,-0.040098099820745664,-0.9179571247789902,-0.07504424168887766,0.0071377011846095965,-0.049948398729595334,0.3750000756664553,0.33333319825125984,0.8749996985381452,0
420,22-3-2023 20:0:23:207219,paved,reverse-safe,-0.6294584608567794,-0.43711062336312867,-1.932259212179448,-0.06917913621878821,-0.017161359897434676,-0.03537420888574363,0.3750000756664553,0.33333319825125984,0.8749996985381452,0
421,22-3-2023 20:0:23:255211,paved,reverse-safe,-0.32885063074765053,-0.5365210825374911,-0.5895989908218924,-0.049689485054880314,-0.007307195961286395,-0.021106424324883036,0.3750000756664553,0.4444442823459566,0.7499993970762894,0
422,22-3-2023 20:0:23:295206,paved,reverse-safe,-0.2121937155770496,0.027697926734461586,-0.7053910926906289,-0.05518792231837688,-0.007547551077054796,-0.01831360096026648,0.3750000756664553,0.4444442823459566,0.7499993970762894,0
423,22-3-2023 20:0:23:346218,paved,reverse-safe,-0.48323291884705444,-1.0762302481470352,-0.3670135222419499,-0.07756315390288399,0.00785810888560181,-0.010454050909687913,0.24999969733417968,0.33333319825125984,0.6250000475992398,0
424,22-3-2023 20:0:23:394269,paved,reverse-safe,-0.815281710951604,-0.5995605112841356,-0.26285805647274185,-0.05533341533686654,0.009367592436014604,-0.007660809441541789,0.24999969733417968,0.33333319825125984,0.6250000475992398,0
425,22-3-2023 20:0:23:434226,paved,reverse-safe,-0.538785926506668,-0.8767134401635563,-0.001558972306515749,-0.05761199436861725,-0.00020311015269760917,-0.00993033427865392,0.24999969733417968,0.4444442823459566,0.6250000475992398,0
426,22-3-2023 20:0:23:482220,paved,reverse-safe,-0.1230290390680106,-0.8655543588761727,-0.5967986570584185,-0.09465984122547091,-0.0010832850042514486,-0.008197868828813975,0.24999969733417968,0.4444442823459566,0.6250000475992398,0
427,22-3-2023 20:0:23:530214,paved,reverse-safe,-0.307555908347126,-0.8106092486373091,-0.3400892517226628,-0.08018333556935817,0.001918366507829349,-0.0008686225880872554,0.24999969733417968,0.33333319825125984,0.6250000475992398,0
428,22-3-2023 20:0:23:570244,paved,reverse-safe,-0.8307108494501134,-0.8989710010744276,1.1624396650491737,-0.06665486130113644,-0.01461901212711035,0.012943690122732157,0.24999969733417968,0.33333319825125984,0.6250000475992398,0
429,22-3-2023 20:0:23:618242,paved,reverse-safe,-0.2963862742213573,-1.2306829236855918,1.019013382364243,-0.07432955779555844,-0.004512176029582754,0.01665060201949721,0.24999969733417968,0.4444442823459566,1.0,0
430,22-3-2023 20:0:23:666430,paved,reverse-safe,-0.5645476478823963,-0.7831587078227222,0.08027788210104891,-0.08097501694995492,0.01935262657850316,0.015751382701665814,0.24999969733417968,0.4444442823459566,1.0,0
431,22-3-2023 20:0:23:706440,paved,reverse-safe,-0.3032857234154772,-1.1706931048128542,-0.978994544780532,-0.10886755359023878,0.02709995763328881,0.014386552721385509,0.3750000756664553,0.4444442823459566,0.4999992384121555,0
432,22-3-2023 20:0:23:754433,paved,reverse-safe,-0.7842510629657856,-1.1347981028885128,0.6668699493675946,-0.06689544722906515,-0.004848988517385092,0.027082399636941576,0.3750000756664553,0.4444442823459566,0.4999992384121555,0
433,22-3-2023 20:0:23:802428,paved,reverse-safe,-0.9577522681022022,-0.6947049823528793,1.5544969007312872,-0.0475079351527987,0.0070529606262275165,0.03361674382080552,0.3750000756664553,0.22222192504166077,0.7499993970762894,0
434,22-3-2023 20:0:23:842435,paved,reverse-safe,-0.6233033580845992,-1.3124790945765954,1.3390875460428755,-0.06702279303781646,0.00038676663651176363,0.03241448764575455,0.3750000756664553,0.22222192504166077,0.7499993970762894,0
435,22-3-2023 20:0:23:890434,paved,reverse-safe,-0.7047889410588626,-1.6546879885253543,0.001109760744729904,-0.06790483220323147,-0.0014010209824983882,0.03858977988014265,0.24999969733417968,0.33333319825125984,0.6250000475992398,0
436,22-3-2023 20:0:23:938465,paved,reverse-safe,-0.5507377552006353,-0.7807489834905433,0.3244440407621767,-0.06005887699031119,-0.020990583640207203,0.041710765619756354,0.24999969733417968,0.33333319825125984,0.6250000475992398,0
437,22-3-2023 20:0:23:978412,paved,reverse-safe,-0.5247786968607653,-0.24430332857773596,-0.2869754797281069,-0.06344500905200488,-0.017162076063167442,0.03475259239692198,0.24999969733417968,0.5555555555555557,0.6250000475992398,0
438,22-3-2023 20:0:24:26459,paved,reverse-safe,-0.6730275258305645,-0.7955347293996501,-1.2726143518419106,-0.08528851660635181,-0.002260564904650828,0.02959417179423813,0.24999969733417968,0.5555555555555557,0.6250000475992398,0
439,22-3-2023 20:0:24:74452,paved,reverse-safe,-0.6771386964344176,-0.49015656677492725,0.5927262142137082,-0.08004860102022059,-0.03729950906561508,0.030542920290278264,0.3750000756664553,0.5555555555555557,0.4999992384121555,0
440,22-3-2023 20:0:24:114441,paved,reverse-safe,-0.7125456939015079,-0.9316469958413605,0.4110166030911331,-0.08342428315917169,-0.007498213954100077,0.03156990762529316,0.3750000756664553,0.5555555555555557,0.4999992384121555,0
441,22-3-2023 20:0:24:166125,paved,reverse-safe,-0.21960740417197366,-1.0842559997074417,-1.0479523469168106,-0.10243249753006053,-0.006917777783492752,0.029245855142755028,0.0,0.5555555555555557,0.6250000475992398,0
442,22-3-2023 20:0:24:211439,paved,reverse-safe,-0.33080979313242626,-1.0780409002018296,-1.140276083691691,-0.07978184956539387,-0.020465359624346334,0.03060518822652335,0.0,0.5555555555555557,0.6250000475992398,0
443,22-3-2023 20:0:24:251432,paved,reverse-safe,-0.3996283608931871,-0.7634562608491481,1.4326506538921513,-0.04528145301108224,-0.019764586673193887,0.03372256511910901,0.6249999243335447,0.33333319825125984,0.8749996985381452,0
444,22-3-2023 20:0:24:299426,paved,reverse-safe,-0.6576513433925391,-0.31138122919091593,0.9831754832701174,-0.06344420494361916,-0.0076871121572650945,0.030495252660290493,0.6249999243335447,0.33333319825125984,0.8749996985381452,0
445,22-3-2023 20:0:24:339425,paved,reverse-safe,-0.13816707803762784,-1.2917646405598164,-1.0369387380325445,-0.11396101522472823,0.026779819943000285,0.02657818774326564,0.3750000756664553,0.4444442823459566,0.6250000475992398,0
446,22-3-2023 20:0:24:387420,paved,reverse-safe,-0.11974763351131637,-1.283107509374715,-1.9210398024403248,-0.10187888642872658,0.022538154233487862,0.029184433342681244,0.3750000756664553,0.4444442823459566,0.6250000475992398,0
447,22-3-2023 20:0:24:435412,paved,reverse-safe,0.1947193217355854,-0.5748616850607182,-0.1694215055998265,-0.06490555208631539,-0.006081404710728749,0.028629639781666064,0.3750000756664553,0.11111108409469636,0.7499993970762894,0
448,22-3-2023 20:0:24:483410,paved,reverse-safe,0.45505546560596866,-1.0909305606465942,-0.34087232636200954,-0.09869922999605976,-0.009211342419577502,0.018315831343162024,0.3750000756664553,0.11111108409469636,0.7499993970762894,0
449,22-3-2023 20:0:24:523402,paved,reverse-safe,0.2510250233829983,-1.1339332416863215,-2.0348517055491695,-0.13021094398901442,0.015113623689647106,0.025546521151079752,0.12499931900190402,0.5555555555555557,0.4999992384121555,0
450,22-3-2023 20:0:24:571396,paved,reverse-safe,0.08459319385235259,-1.2158238631983966,1.439202462619348,-0.10555893994573162,0.020061418814371176,0.03399452507896974,0.12499931900190402,0.5555555555555557,0.4999992384121555,0
451,22-3-2023 20:0:24:617714,paved,reverse-safe,-0.06222173995710409,-1.5472631995403014,-0.29416370633407674,-0.11074206256134157,0.010289555724362584,0.03023008404990938,0.3750000756664553,0.4444442823459566,0.6250000475992398,0
452,22-3-2023 20:0:24:665698,paved,reverse-safe,-0.12751934481293448,-1.2401582671650067,-1.0478695046663127,-0.1115953455376275,0.002378733815646088,0.027556262451454844,0.3750000756664553,0.4444442823459566,0.6250000475992398,0
453,22-3-2023 20:0:24:707266,paved,reverse-safe,-1.0917384350598889,-0.5004029776514426,0.11280380094376441,-0.07135062862421071,-0.004017421872578246,0.028621056069362966,0.3750000756664553,0.22222192504166077,0.4999992384121555,0
454,22-3-2023 20:0:24:755297,paved,reverse-safe,0.04597036618429806,-0.5420747387823629,-2.217151200852867,-0.04209925532378796,0.013432260634790104,0.01244830720908342,0.3750000756664553,0.22222192504166077,0.4999992384121555,0
455,22-3-2023 20:0:24:795263,paved,reverse-safe,-0.7762418512723389,-1.0486073894479668,-0.37754558253274584,-0.025739046283835984,0.014258097736765556,0.01168807752960088,0.3750000756664553,0.5555555555555557,0.7499993970762894,0
456,22-3-2023 20:0:24:843245,paved,reverse-safe,-0.9418416971562479,-0.053556042288361416,0.6748152030269754,-0.0014903761294043777,-0.003903673657399142,0.013212078811951548,0.3750000756664553,0.5555555555555557,0.7499993970762894,0
457,22-3-2023 20:0:24:891245,paved,reverse-safe,-0.6536227743871539,0.5794295106663142,0.9647256820632375,-0.02096772430168029,0.01556021996945299,0.00838763773581247,0.4999983353379899,0.22222192504166077,0.8749996985381452,0
458,22-3-2023 20:0:24:931236,paved,reverse-safe,-0.8221406672377354,-0.06792811004163035,-0.7022674742814319,-0.08997886933205909,0.029266310160780268,0.005894277836400931,0.4999983353379899,0.22222192504166077,0.8749996985381452,0
459,22-3-2023 20:0:24:979284,paved,reverse-safe,-0.152328820463713,-0.3765011600177288,-0.14832859353289396,-0.0883480695251277,-0.03438090123468149,-0.004709553123164685,0.3750000756664553,0.22222192504166077,0.6250000475992398,0
460,22-3-2023 20:0:25:27238,paved,reverse-safe,-0.47904777036491447,0.04453000095474491,0.5227963085729856,-0.06886245018260533,-0.01292633783553599,-0.0037950191386254967,0.3750000756664553,0.22222192504166077,0.6250000475992398,0
461,22-3-2023 20:0:25:75271,paved,reverse-safe,-0.3234015732958937,0.388061580255983,-0.4127422650788586,-0.07471646251890963,0.019221516785541355,-0.007222791106199113,0.4999983353379899,0.33333319825125984,0.4999992384121555,0
462,22-3-2023 20:0:25:120373,paved,reverse-safe,0.33158841546018636,-0.4591682491633556,-0.9038840120314179,-0.06729940901760098,-0.03507704625116278,-0.0017879866190938102,0.4999983353379899,0.33333319825125984,0.4999992384121555,0
463,22-3-2023 20:0:25:162297,paved,reverse-safe,0.3827469458201911,-0.8460320373909774,-0.510408862930527,-0.04357219544016384,0.003018001969155276,-0.007443139728640046,0.3750000756664553,0.33333319825125984,0.4999992384121555,0
464,22-3-2023 20:0:25:203364,paved,reverse-safe,0.09673359287965294,-1.1574913869868344,-0.9726558888335164,-0.05490586379009564,0.005254232804845932,-0.013056819705942004,0.3750000756664553,0.33333319825125984,0.4999992384121555,0
465,22-3-2023 20:0:25:251379,paved,reverse-safe,0.13151403354650715,-0.5717480270485218,1.0038895850137124,-0.004016841357802461,-0.031040580956041924,-0.0010633634325298413,0.4999983353379899,0.33333319825125984,0.7499993970762894,0
466,22-3-2023 20:0:25:299467,paved,reverse-safe,0.03254153924198268,-0.30469529605235873,-0.32208539508548495,-0.019691801086677934,0.005287134661366495,0.00043891206179256094,0.4999983353379899,0.33333319825125984,0.7499993970762894,0
467,22-3-2023 20:0:25:339476,paved,reverse-safe,-0.23683941542779524,-0.7327145027671583,-1.6383921426400818,-0.05167498946228875,0.022573735246587286,0.005737123518896265,0.3750000756664553,0.5555555555555557,0.6250000475992398,0
468,22-3-2023 20:0:25:387467,paved,reverse-safe,-0.17716015500088764,-0.2999102799583351,-2.812535233528479,-0.07284528747123173,-0.0060690754230660025,0.01478593906095341,0.3750000756664553,0.5555555555555557,0.6250000475992398,0
469,22-3-2023 20:0:25:435519,paved,reverse-safe,0.3673200461710917,-0.10823725651099622,-2.3659335046624275,-0.06260054969997408,-0.015646529930369163,0.0066012011373138835,0.24999969733417968,0.4444442823459566,0.8749996985381452,0
470,22-3-2023 20:0:25:475489,paved,reverse-safe,-0.9680736315336538,-0.012781275197243383,-1.9619711909728066,-0.10093466015314612,0.022629850235277055,0.0037004283686371577,0.24999969733417968,0.4444442823459566,0.8749996985381452,0
471,22-3-2023 20:0:25:530033,paved,reverse-safe,-0.33027461700863947,-0.7459115240253135,-2.7153212960354614,-0.1368017651585337,0.00021534792863373356,0.009488074166634577,0.4999983353379899,0.5555555555555557,0.6250000475992398,0
472,22-3-2023 20:0:25:574570,paved,reverse-safe,-0.3664343987820735,-0.6372791501668575,-0.7953933195137841,-0.10776961350496547,-0.012946758800944523,0.014790181097346648,0.4999983353379899,0.5555555555555557,0.6250000475992398,0
473,22-3-2023 20:0:25:614550,paved,reverse-safe,-0.7576056437806366,-1.425215395947004,-0.4714955875728639,-0.10351853300421239,-0.016985465374344293,0.029526798808474253,0.3750000756664553,0.33333319825125984,0.7499993970762894,0
474,22-3-2023 20:0:25:662554,paved,reverse-safe,-0.9522168997853792,-1.9717643995039669,0.2106038113705232,-0.08828726591508111,-0.01960302972200898,0.04331547575473421,0.3750000756664553,0.33333319825125984,0.7499993970762894,0
475,22-3-2023 20:0:25:710156,paved,reverse-safe,-0.41174716446616355,-1.5821199011492242,2.000356548767635,-0.04813431436946443,-0.017551714965181618,0.04683702861901173,0.3750000756664553,0.5555555555555557,0.4999992384121555,0
476,22-3-2023 20:0:25:751562,paved,reverse-safe,-0.11743818816639012,-1.416939011619576,0.5458132218034846,-0.0787374873479974,-0.021017342186010313,0.04996385384457934,0.3750000756664553,0.5555555555555557,0.4999992384121555,0
477,22-3-2023 20:0:25:799567,paved,reverse-safe,0.16328577841698505,-0.8567914722146986,-0.23069715274348157,-0.05307296231053592,-0.015257285162301392,0.044251421655549905,0.3750000756664553,0.33333319825125984,0.3749999524007594,0
478,22-3-2023 20:0:25:839552,paved,reverse-safe,0.5780079797381081,-0.3834713303243855,-0.25597671106031133,-0.04464142302021582,-0.027357715473049063,0.03755238012703278,0.3750000756664553,0.33333319825125984,0.3749999524007594,0
479,22-3-2023 20:0:25:887600,paved,reverse-safe,0.2431323013910197,-1.188029634833625,-0.8570133416032937,-0.06358308614327604,-0.03624989745997809,0.02963692644608107,0.4999983353379899,0.33333319825125984,0.3749999524007594,0
480,22-3-2023 20:0:25:935552,paved,reverse-safe,0.22941681745014494,-0.6755848876027426,-0.4671223000862131,-0.05223726816404057,-0.029237396699212333,0.041042016746564165,0.4999983353379899,0.33333319825125984,0.3749999524007594,0
481,22-3-2023 20:0:25:977000,paved,reverse-safe,-0.07848733615167161,-1.0713648226632992,-0.1282264991000035,-0.05621927119639763,-0.01601709776588256,0.047680043838784075,0.24999969733417968,0.5555555555555557,0.4999992384121555,0
482,22-3-2023 20:0:26:24557,paved,reverse-safe,0.884811938581874,-0.9332413111984211,0.9842778950622504,-0.06392692443068235,-0.020660058199316485,0.042780891450556816,0.24999969733417968,0.5555555555555557,0.4999992384121555,0
483,22-3-2023 20:0:26:74736,paved,reverse-safe,0.27598983534981814,-0.7966626970418276,1.3452638866918942,-0.03677743052571182,-0.022964868412321746,0.04808111848194398,0.3750000756664553,0.4444442823459566,0.4999992384121555,0
484,22-3-2023 20:0:26:114636,paved,reverse-safe,-0.4075042852753541,-1.5970420608179858,1.4063248093125142,-0.026785803800387975,-0.038208842983430046,0.05304355355454377,0.3750000756664553,0.4444442823459566,0.4999992384121555,0
485,22-3-2023 20:0:26:162689,paved,reverse-safe,0.5278371135361245,-1.3151096098463968,-0.71085553471863,-0.06290402570881322,-0.010597817701518217,0.04616426012789697,0.3750000756664553,0.22222192504166077,0.6250000475992398,0
486,22-3-2023 20:0:26:202660,paved,reverse-safe,-0.20782925649783102,-1.2234445715512219,-1.8641859409589983,-0.08493028251436416,-0.0005080993175907884,0.04583044972657864,0.3750000756664553,0.22222192504166077,0.6250000475992398,0
487,22-3-2023 20:0:26:250619,paved,reverse-safe,-0.25779525637048306,-0.6825248527675883,-1.321159320826339,-0.07408808793331688,-0.027119980856953288,0.052294696753733945,0.24999969733417968,0.4444442823459566,0.3749999524007594,0
488,22-3-2023 20:0:26:299978,paved,reverse-safe,0.2370870682824356,-0.9905330281470547,-2.953595316470582,-0.12284117273374362,-0.04382507862316106,0.05177976384444353,0.24999969733417968,0.4444442823459566,0.3749999524007594,0
489,22-3-2023 20:0:26:340046,paved,reverse-safe,-0.49730512919444286,-0.39157219682682776,-1.8494567541970908,-0.08414903651717073,-0.013588189047452563,0.05569548320099497,0.24999969733417968,0.4444442823459566,0.7499993970762894,0
490,22-3-2023 20:0:26:388040,paved,reverse-safe,-0.1959465771680366,-0.10900675259170117,-0.07162192081852092,-0.056126870661356104,-0.06872275404511399,0.05806464950362593,0.24999969733417968,0.4444442823459566,0.7499993970762894,0
491,22-3-2023 20:0:26:428028,paved,reverse-safe,0.12200284450677445,-0.5090057011007589,-0.9708287227674325,-0.07982532130053686,-0.03230931853425393,0.04819056791303643,0.24999969733417968,0.5555555555555557,0.6250000475992398,0
492,22-3-2023 20:0:26:478780,paved,reverse-safe,-0.5320119070758029,0.3405589887234709,-0.2279999871609414,-0.07025178986233786,-0.005246911470015478,0.04810411065882652,0.24999969733417968,0.5555555555555557,0.6250000475992398,0
493,22-3-2023 20:0:26:518764,paved,reverse-safe,-0.2721963149885148,-0.551220526651279,2.2155065131186653,-0.062084869206418286,-0.0322431660540351,0.04487643417572967,0.24999969733417968,0.22222192504166077,0.6250000475992398,0
494,22-3-2023 20:0:26:566796,paved,reverse-safe,-0.16983003143109937,-0.9173346415707369,0.8715767976380842,-0.08996487695781674,-0.0264564311679527,0.04255870307645659,0.24999969733417968,0.22222192504166077,0.6250000475992398,0
495,22-3-2023 20:0:26:614792,paved,reverse-safe,-0.20871938911978377,-0.860891449537702,0.866147274181141,-0.08267913545860738,-0.002174537197278087,0.040365572719299414,0.3750000756664553,0.6666666126338374,0.3749999524007594,0
496,22-3-2023 20:0:26:654741,paved,reverse-safe,-0.22183202551008133,-0.5265742167099174,0.019607842416583088,-0.08554539185194289,0.015289597384752295,0.039635860459730124,0.3750000756664553,0.6666666126338374,0.3749999524007594,0
497,22-3-2023 20:0:26:709477,paved,reverse-safe,-0.42712347705385684,-0.14377898782942322,-1.2551988887202155,-0.10898497333533548,0.01994856849594694,0.03583916650474235,0.3750000756664553,0.33333319825125984,0.7499993970762894,0
498,22-3-2023 20:0:26:749493,paved,reverse-safe,-0.5760786445985194,-0.01979907006449387,-1.2445774108777994,-0.09808583009265,-0.0005399238458890544,0.04061806927933928,0.3750000756664553,0.33333319825125984,0.7499993970762894,0
499,22-3-2023 20:0:26:797481,paved,reverse-safe,0.5074963589454543,-1.1127842066710312,0.010605917919688679,-0.06274807191775753,-0.017559386060051075,0.04984975399402885,0.24999969733417968,0.33333319825125984,0.4999992384121555,0
500,22-3-2023 20:0:26:845473,paved,reverse-safe,0.038833466336273936,-1.1806443334820298,-0.47728199750650646,-0.06239978263799381,0.005607629806375469,0.052388227110615984,0.24999969733417968,0.33333319825125984,0.4999992384121555,0
501,22-3-2023 20:0:26:885478,paved,reverse-safe,-0.3096255105165818,-1.5404677330901468,0.45624339918630974,-0.04582256910069238,0.0019744846391432447,0.04772383275460288,0.6249999243335447,0.4444442823459566,0.7499993970762894,0
502,22-3-2023 20:0:26:933482,paved,reverse-safe,-0.6567234406702205,-0.6107474001100321,-0.7646531556892819,-0.0625637008758867,-0.022779261805653102,0.03479818648559611,0.6249999243335447,0.4444442823459566,0.7499993970762894,0
503,22-3-2023 20:0:26:973466,paved,reverse-safe,-0.4370090441563465,-1.8158903580326065,-1.3934157319140756,-0.10251530584702936,-0.008209600604740526,0.02978683693976805,0.3750000756664553,0.33333319825125984,0.6250000475992398,0
504,22-3-2023 20:0:27:21457,paved,reverse-safe,0.07140790771318256,-1.3273557396218407,-0.72645017370016,-0.0718445978016233,-0.007860246120511168,0.03007387341491548,0.3750000756664553,0.33333319825125984,0.6250000475992398,0
505,22-3-2023 20:0:27:69494,paved,reverse-safe,0.9848785838683587,-1.256858831003921,-0.082051344539115,-0.06191134321030613,0.03402973105645797,0.021462124159368524,0.4999983353379899,0.5555555555555557,0.6250000475992398,0
506,22-3-2023 20:0:27:109460,paved,reverse-safe,1.2507716677350822,-0.9361127970729668,1.5572897384123663,-0.061588127787582665,0.03566623796906679,0.026415880886127015,0.4999983353379899,0.5555555555555557,0.6250000475992398,0
507,22-3-2023 20:0:27:157442,paved,reverse-safe,0.41118157968844804,-1.9009188502488379,1.722241867715444,-0.05139134611432328,-0.034425613915799805,0.024332064759805414,0.4999983353379899,0.5555555555555557,0.6250000475992398,0
508,22-3-2023 20:0:27:205446,paved,reverse-safe,0.4173985353533457,-1.4313433008452678,0.4124000670515364,-0.07044936237020827,0.00863891954398216,0.010666257202373797,0.4999983353379899,0.5555555555555557,0.6250000475992398,0
509,22-3-2023 20:0:27:253434,paved,reverse-safe,-0.16298112708999224,-1.039516179782023,0.09343067404032807,-0.040558172602548556,-0.02516917190534857,0.011805788971616665,0.4999983353379899,0.4444442823459566,0.6250000475992398,0
510,22-3-2023 20:0:27:293439,paved,reverse-safe,-0.014606969737724268,-1.7942069989978553,-0.42114572640339937,-0.06150571359942045,0.023681045591462786,0.008452879695783375,0.4999983353379899,0.4444442823459566,0.6250000475992398,0
511,22-3-2023 20:0:27:341452,paved,reverse-safe,-1.2920664040822565,-1.5841201039886985,-1.4629904988891536,-0.09685042085865492,0.027207231032713084,0.022087362455003225,0.4999983353379899,0.4444442823459566,0.2500000951984803,0
512,22-3-2023 20:0:27:389433,paved,reverse-safe,-0.49791760484753234,-1.0334040796764983,-0.4536008723647067,-0.07826308422235685,-0.009336560073521082,0.021292397681592128,0.4999983353379899,0.4444442823459566,0.2500000951984803,0
513,22-3-2023 20:0:27:429402,paved,reverse-safe,-0.389850480643231,-0.33279580325451685,-0.2810184452890887,-0.05963941924460772,0.013852134575650678,0.014985729056262033,0.24999969733417968,0.5555555555555557,0.8749996985381452,0
514,22-3-2023 20:0:27:477403,paved,reverse-safe,-1.367278351422876,0.1675482170100474,0.7027632949649314,-0.053038502408960256,0.040682911181007926,0.018574507537719703,0.24999969733417968,0.5555555555555557,0.8749996985381452,0
515,22-3-2023 20:0:27:517438,paved,reverse-safe,-0.5846286047665565,-0.06917556542668571,1.093408647677522,-0.05648801879467692,0.00890782289785879,0.014792729098582265,0.24999969733417968,0.4444442823459566,0.6250000475992398,0
516,22-3-2023 20:0:27:565414,paved,reverse-safe,0.2575600805475836,0.21837553973554688,0.19176012820340416,-0.0822472428252672,0.017215063921475492,0.005359662278797243,0.24999969733417968,0.4444442823459566,0.6250000475992398,0
517,22-3-2023 20:0:27:613400,paved,reverse-safe,-0.6599034272138657,0.0064193491570724015,0.8327682600929672,-0.10274547905506069,0.0173091242611553,0.008618184862518682,0.4999983353379899,0.4444442823459566,0.8749996985381452,0
518,22-3-2023 20:0:27:653381,paved,reverse-safe,-0.04097250863658408,-0.09408745008361857,0.7472207989641477,-0.08997519861523307,-0.026167439440548772,0.008814239961629519,0.4999983353379899,0.4444442823459566,0.8749996985381452,0
519,22-3-2023 20:0:27:701366,paved,reverse-safe,-0.41743699421969205,-0.7440243484289215,1.3722458481176196,-0.09454141631287206,0.04630781077505589,0.007635674576267732,0.6249999243335447,0.4444442823459566,0.4999992384121555,0
520,22-3-2023 20:0:27:749369,paved,reverse-safe,-0.5773867472414528,-0.5769266999024457,0.6027062545773567,-0.06563045059957132,-0.05231892029054013,0.013285030440922486,0.6249999243335447,0.4444442823459566,0.4999992384121555,0
521,22-3-2023 20:0:27:797403,paved,reverse-safe,-0.20168863925274993,-1.2697810546577897,0.35657117172449604,-0.06478280783214406,-0.03306463478244097,0.013032780688927718,0.4999983353379899,0.6666666126338374,0.7499993970762894,0
522,22-3-2023 20:0:27:837388,paved,reverse-safe,0.0892382702625587,-1.0032392224562734,-1.4892190399351297,-0.0906930324025717,-0.040142136418325466,0.010104930254744293,0.4999983353379899,0.6666666126338374,0.7499993970762894,0
