sr_no,timestamp,road_type,harsh_event,acc_x,acc_y,acc_z,gyro_x,gyro_y,gyro_z,mag_x,mag_y,mag_z,event_class
1,28-2-2023_15:49:11:229189,paved,cons-acc-40,-1.412084788259635,-0.14643509557948486,-3.5971976587251007,-0.11266469812247105,0.07652337689275894,0.01911796172281191,1.0,0.5714287076382653,0.0,0
2,28-2-2023_15:49:11:585986,paved,cons-acc-40,-1.4056979454957734,0.3609702935085567,-3.107045783281931,-0.06459316758525428,0.04026303409439534,0.01752371531757449,1.0,0.5714287076382653,0.0,0
3,28-2-2023_15:49:11:592806,paved,cons-acc-40,-1.0175996128672997,-0.01677854801887696,-1.8009709894587393,-0.05472267144001499,-0.020129031258231574,0.0007219156269766235,0.8750015887053876,0.2857144491659182,0.24999944896091997,0
4,28-2-2023_15:49:11:600804,paved,cons-acc-40,-0.6247283286542229,-0.7010121862024645,-0.685757063619775,-0.012679932155803049,-0.03759138139023868,0.01231850185806765,0.8750015887053876,0.2857144491659182,0.24999944896091997,0
5,28-2-2023_15:49:11:632802,paved,cons-acc-40,-0.6769137860662184,-1.5555811842338527,-0.7742318244950369,-0.00868508960133485,0.015152733086915463,0.014094147667792017,0.6250001433261806,0.5714287076382653,0.375000275519539,0
6,28-2-2023_15:49:11:640799,paved,cons-acc-40,-0.6323295823919554,-2.2137984845777554,-2.317183464637434,-0.0030647672872011773,-0.021641518967609144,0.021414163210221916,0.6250001433261806,0.5714287076382653,0.375000275519539,0
7,28-2-2023_15:49:11:648798,paved,cons-acc-40,0.38745074699708304,-1.4917887993089023,-3.838868846986467,-0.02310589006339847,-0.012879961665338958,0.01820826678613118,0.5000017320315661,0.4285714830553062,0.49999944950239295,0
8,28-2-2023_15:49:11:688794,paved,cons-acc-40,-0.25961890353345896,-1.5007345211108387,-2.0964771832068747,-0.013847066692062027,0.002475320135147275,0.026333810605224498,0.5000017320315661,0.4285714830553062,0.49999944950239295,0
9,28-2-2023_15:49:11:712791,paved,cons-acc-40,-0.7723298820808904,-1.0470662482495805,1.056677067710376,0.01333178146348369,0.04857920007909777,0.026406312111746526,1.0,0.1428572245829591,0.49999944950239295,0
10,28-2-2023_15:49:11:736787,paved,cons-acc-40,-1.0566370666635148,-0.37951782121347255,0.7658395042691515,-0.016021497532075445,0.08420867273018758,0.01935266292916335,1.0,0.1428572245829591,0.49999944950239295,0
11,28-2-2023_15:49:11:752787,paved,cons-acc-40,-0.5604313063537196,0.6333062885962552,0.4441208366024018,-0.0036207129441066434,0.011276329572934951,0.02087850991226985,0.7500008660157841,0.4285714830553062,0.375000275519539,0
12,28-2-2023_15:49:11:792780,paved,cons-acc-40,0.30825615270154394,-0.10090380412946498,-2.7305960876239266,-0.0057683275433096145,0.0020614633559110657,0.02776072981150829,0.7500008660157841,0.4285714830553062,0.375000275519539,0
13,28-2-2023_15:49:11:848774,paved,cons-acc-40,0.20383555304481815,0.9025888959726085,0.34424990943816836,-0.00880729287418079,0.029372130038639678,0.02529260866455788,0.8750015887053876,0.5714287076382653,0.49999944950239295,0
14,28-2-2023_15:49:11:896769,paved,cons-acc-40,0.2753564135144795,-0.17295387079596503,1.1600499109112237,0.009536758428968265,-0.042227262236425374,0.024641314905789607,0.8750015887053876,0.5714287076382653,0.49999944950239295,0
15,28-2-2023_15:49:11:952763,paved,cons-acc-40,-0.38533813580746057,-0.7647803167362325,2.730630540727153,-0.025369479098429848,-0.07439285387956462,0.021945459165451417,0.7500008660157841,0.2857144491659182,0.375000275519539,0
16,28-2-2023_15:49:12:8756,paved,cons-acc-40,-0.47246427909291167,0.31548854862278664,1.289931178713147,-0.039857419274081506,-0.04892418966778443,0.0123702776409745,0.7500008660157841,0.2857144491659182,0.375000275519539,0
17,28-2-2023_15:49:12:57659,paved,cons-acc-40,-0.20994601451796774,0.1371717605012918,2.202284172647972,-0.04668855822109257,-0.07870431067052285,0.02384387249437278,0.6250001433261806,0.5714287076382653,0.24999944896091997,0
18,28-2-2023_15:49:12:105695,paved,cons-acc-40,-0.5416374367894454,-0.8535275709498711,2.3809362532636076,-0.0207167573823209,-0.019814893298441737,0.021147008432277452,0.6250001433261806,0.5714287076382653,0.24999944896091997,0
19,28-2-2023_15:49:12:161642,paved,cons-acc-40,-0.5444256808981518,0.07292485723814435,2.0093965283759516,-0.03727605982743007,0.00684537327238037,0.014756576091445855,0.7500008660157841,0.4285714830553062,0.375000275519539,0
20,28-2-2023_15:49:12:213365,paved,cons-acc-40,-0.47256651805620287,0.6215573305062058,1.7805678357434376,-0.020756480478167517,-0.04779225201019869,0.013496844722157578,0.7500008660157841,0.4285714830553062,0.375000275519539,0
21,28-2-2023_15:49:12:266681,paved,cons-acc-40,0.020745620653023156,0.14040194600028494,0.7674246038796906,-0.03259369047598471,-0.022978223003557303,0.008119528039435539,0.8750015887053876,0.4285714830553062,0.24999944896091997,0
22,28-2-2023_15:49:12:314674,paved,cons-acc-40,-0.2663327540547959,-0.728268579748893,1.8790819132468641,-0.043447207370317514,-0.042374724431045105,0.016755043619138127,0.8750015887053876,0.4285714830553062,0.24999944896091997,0
23,28-2-2023_15:49:12:370665,paved,cons-acc-40,-0.06956828968774717,-1.0519351724810484,0.3933928527985624,-0.0534422994861384,-0.07444694479010984,0.010451547667622796,0.7500008660157841,0.4285714830553062,0.375000275519539,0
24,28-2-2023_15:49:12:418715,paved,cons-acc-40,-0.03157430917933818,-0.06011521981053325,0.3579414256268852,-0.020362843340633062,0.016484685246564337,0.007097598392172841,0.7500008660157841,0.4285714830553062,0.375000275519539,0
25,28-2-2023_15:49:12:474695,paved,cons-acc-40,0.23728795061786512,0.17884590759869765,1.8511930241757752,0.015206968096418604,0.015607469676330083,0.01818160129062158,0.8750015887053876,0.5714287076382653,0.49999944950239295,0
26,28-2-2023_15:49:12:522690,paved,cons-acc-40,0.23031543841906052,0.055015084724608004,0.1421453810188722,0.008057986713991439,0.03096834983829274,0.010576368056373886,0.8750015887053876,0.5714287076382653,0.49999944950239295,0
27,28-2-2023_15:49:12:570684,paved,cons-acc-40,0.7609079730246221,-0.7634302623970219,-0.5586250239203779,-0.009593068476898454,0.02732821575931864,0.004131340273361387,0.8750015887053876,0.7142857415276529,0.375000275519539,0
28,28-2-2023_15:49:12:626627,paved,cons-acc-40,1.0050257037532817,-1.4952969494383725,0.24842468491123804,0.03077318012987746,-0.032353253304395264,0.012231607958749113,0.8750015887053876,0.7142857415276529,0.375000275519539,0
29,28-2-2023_15:49:12:682624,paved,cons-acc-40,0.7348029102182041,-1.061257054976561,0.26119576640716435,0.02372365633386316,0.0501372776359753,0.01105698137507477,0.6250001433261806,0.4285714830553062,0.49999944950239295,0
30,28-2-2023_15:49:12:730618,paved,cons-acc-40,0.2825571980536838,-0.4040870762657347,0.21235672902422947,-0.012134268084045882,0.0008020984176622808,0.012078398950179963,0.6250001433261806,0.4285714830553062,0.49999944950239295,0
31,28-2-2023_15:49:12:786608,paved,cons-acc-40,0.1642906894563873,0.1975435290308002,1.0784373323026708,-0.016454774156156156,-0.02741248317255729,0.008528277737679777,0.8750015887053876,0.5714287076382653,0.375000275519539,0
32,28-2-2023_15:49:12:834599,paved,cons-acc-40,0.015079605805621205,-0.7593907320304281,1.4938968085797164,0.023507844962054984,-0.00015727961948941785,8.201275413900755e-05,0.8750015887053876,0.5714287076382653,0.375000275519539,0
33,28-2-2023_15:49:12:882596,paved,cons-acc-40,0.2523092519888759,-0.29320463572673483,0.8884172052863434,-0.01021733195406102,0.005455855296162458,0.004679523643760019,0.6250001433261806,0.4285714830553062,0.375000275519539,0
34,28-2-2023_15:49:12:938637,paved,cons-acc-40,-0.34940575732371115,-0.5676734864748786,1.1121423595410183,-0.019449310049226086,0.024209264266771183,0.006045390224039339,0.6250001433261806,0.4285714830553062,0.375000275519539,0
35,28-2-2023_15:49:12:995601,paved,cons-acc-40,-0.028700358179831797,-0.9915932956104696,-0.24590190000551826,-0.004543653646614644,-0.035352265391194265,0.004026445772432665,0.6250001433261806,0.4285714830553062,0.375000275519539,0
36,28-2-2023_15:49:13:39647,paved,cons-acc-40,0.08856615840254177,-0.43312507166363456,0.44118901006042044,-0.03134708286916213,-0.0248230492782279,0.0019333413099240806,0.6250001433261806,0.4285714830553062,0.375000275519539,0
37,28-2-2023_15:49:13:95683,paved,cons-acc-40,-0.20517611118922802,-0.4342445595537476,1.7219149054124667,-0.02570991113772645,-0.007470350457257219,0.0033543433159619425,0.8750015887053876,0.4285714830553062,0.24999944896091997,0
38,28-2-2023_15:49:13:151640,paved,cons-acc-40,-0.2820648966576842,-1.3376892663340856,2.860242114526076,0.014027323022313541,-0.03854119292814055,0.00011525584953747886,0.8750015887053876,0.4285714830553062,0.24999944896091997,0
39,28-2-2023_15:49:13:199669,paved,cons-acc-40,0.21802620620303825,-1.3374833535962776,0.5574123806948239,0.000816060771381551,-0.05820125888580288,-0.0022103504346846037,0.8750015887053876,0.2857144491659182,0.375000275519539,0
40,28-2-2023_15:49:13:247665,paved,cons-acc-40,0.05083834991727276,-0.4567452270225255,0.7892668359236227,-0.007771063260185007,-0.030000353858790685,0.0007251665924572371,0.8750015887053876,0.2857144491659182,0.375000275519539,0
41,28-2-2023_15:49:13:303608,paved,cons-acc-40,-0.32002197083930545,-0.22598752324455731,1.590914381703393,-0.005298629700030822,-0.032809116155916015,-0.00023618573358645393,1.0,0.4285714830553062,0.49999944950239295,0
42,28-2-2023_15:49:13:351603,paved,cons-acc-40,-0.7206533269971882,-0.5036639092665951,3.09468291755713,-0.009378413874319527,0.01017321148290299,-0.0012665900648798985,1.0,0.4285714830553062,0.49999944950239295,0
43,28-2-2023_15:49:13:407609,paved,cons-acc-40,-0.05140116910075987,-1.2769245425099485,1.2683689158320457,-0.02640255442510174,-0.06798766777734339,-0.010459841449678773,0.7500008660157841,0.5714287076382653,0.375000275519539,0
44,28-2-2023_15:49:13:455634,paved,cons-acc-40,0.4131881054488662,-1.3503945985862065,1.8150433335390541,0.0042334407705144385,-0.03831178379194961,-0.0006275663174583144,0.7500008660157841,0.5714287076382653,0.375000275519539,0
45,28-2-2023_15:49:13:511628,paved,cons-acc-40,0.965931776746489,-0.9262185328007125,1.0326279440046362,0.008678662006807935,-0.004829796924351995,-0.011484045357108211,0.6250001433261806,0.5714287076382653,0.6250002753390483,0
46,28-2-2023_15:49:13:559593,paved,cons-acc-40,0.7889121503764036,-1.1278562041169964,1.1860754094593235,0.021667040005870903,-0.026442972893506566,-0.002032967413740051,0.6250001433261806,0.5714287076382653,0.6250002753390483,0
47,28-2-2023_15:49:13:618220,paved,cons-acc-40,0.18395528171239706,-1.1462809131997667,1.441445346448523,0.022236759235463623,0.00660631809059491,0.006447076653316872,0.7500008660157841,0.4285714830553062,0.49999944950239295,0
48,28-2-2023_15:49:13:665662,paved,cons-acc-40,0.4384036046685055,-1.171260598721474,0.19693556315214256,0.008695856956490349,0.03559226411102462,0.00292259707585136,0.7500008660157841,0.4285714830553062,0.49999944950239295,0
49,28-2-2023_15:49:13:713687,paved,cons-acc-40,1.142960907363339,-0.3137229835841625,-0.20019532114478417,-0.011554713190303068,-0.005882232782123131,0.0026246116525544417,0.6250001433261806,0.2857144491659182,0.24999944896091997,0
50,28-2-2023_15:49:13:769650,paved,cons-acc-40,0.6471138876100355,-1.2442492423521498,-1.1153276869322069,-0.036312914344285324,0.036238862136028845,-0.0017221686093317947,0.6250001433261806,0.2857144491659182,0.24999944896091997,0
51,28-2-2023_15:49:13:825625,paved,cons-acc-40,0.23061378596857113,-0.6435732598568219,-0.738145016035435,-0.035976562713568305,-0.015594259041436007,0.004781880294578366,0.3749998551591448,0.1428572245829591,0.49999944950239295,0
52,28-2-2023_15:49:13:873617,paved,cons-acc-40,0.0752397724218884,-0.3228573198204101,0.24971890188230883,0.006207581397582415,-0.04506238341237838,0.011565167257311198,0.3749998551591448,0.1428572245829591,0.49999944950239295,0
53,28-2-2023_15:49:13:929610,paved,cons-acc-40,-0.06981994042883066,0.040541308623717354,-1.0732031442712673,-0.03547040465066957,-0.041538031818097544,0.00039332379768472134,0.6250001433261806,0.5714287076382653,0.49999944950239295,0
54,28-2-2023_15:49:13:977629,paved,cons-acc-40,0.41054612842804566,-1.271826729524728,-1.6851893682321868,-0.047623815113891486,0.028724695498551077,0.008146029126169078,0.6250001433261806,0.5714287076382653,0.49999944950239295,0
55,28-2-2023_15:49:14:25647,paved,cons-acc-40,0.3231766324863599,-1.697322574484667,-1.4594326280733207,-0.08855592909510007,0.02633659202011318,0.008801211231227377,0.6250001433261806,0.5714287076382653,0.375000275519539,0
56,28-2-2023_15:49:14:81640,paved,cons-acc-40,0.09517169401018927,-1.3229748153073806,0.7976933960135983,-0.03545929867552889,0.02630375361413488,0.011144466547402634,0.6250001433261806,0.5714287076382653,0.375000275519539,0
57,28-2-2023_15:49:14:137596,paved,cons-acc-40,-0.014891288035369071,-1.7568697439327152,0.18479189071447466,0.011069262917098234,-0.009458001012054573,0.017593192111329602,0.6250001433261806,0.7142857415276529,0.49999944950239295,0
58,28-2-2023_15:49:14:185578,paved,cons-acc-40,-0.22915295440454747,-1.25243422148247,-0.1891786434053454,0.0043783400969524015,0.0023814998036465734,0.007370766967784749,0.6250001433261806,0.7142857415276529,0.49999944950239295,0
59,28-2-2023_15:49:14:241588,paved,cons-acc-40,0.3557964133788604,-0.8920946373622785,0.8773921790393052,0.00493306718869245,0.02291292299937553,0.011018341910337254,0.7500008660157841,0.4285714830553062,0.375000275519539,0
60,28-2-2023_15:49:14:289590,paved,cons-acc-40,0.7065959817977059,-0.01290444369028021,0.6618213674110405,-0.027573888087985256,0.014086914324293551,0.006933902514117411,0.7500008660157841,0.4285714830553062,0.375000275519539,0
61,28-2-2023_15:49:14:345564,paved,cons-acc-40,0.6291549472269098,-1.4307589196001262,-0.6898329539983601,-0.037316596151250776,0.0007315847966970317,0.014410726704350181,0.6250001433261806,0.7142857415276529,0.49999944950239295,0
62,28-2-2023_15:49:14:391035,paved,cons-acc-40,0.30519746128530295,-0.41513349082238116,1.2029412025026032,-0.04063367187920781,-0.032160005602711345,0.004710263090221238,0.6250001433261806,0.7142857415276529,0.49999944950239295,0
63,28-2-2023_15:49:14:447048,paved,cons-acc-40,-1.4295456604228967,-0.17914745079802566,3.2596084327727612,0.0117510436243854,0.04261977294151274,0.005524857729623256,0.8750015887053876,0.5714287076382653,0.6250002753390483,0
64,28-2-2023_15:49:14:497953,paved,cons-acc-40,-2.087172082644644,-1.9367659932704357,5.208950337530325,0.05949509419407057,-0.011230103008248046,0.01765382673144626,0.8750015887053876,0.5714287076382653,0.6250002753390483,0
65,28-2-2023_15:49:14:545990,paved,cons-acc-40,-0.9383274919279714,-1.9822229494065762,3.329446628564674,-0.0035076200731619586,-0.03671633382424451,0.008806715623876507,0.8750015887053876,0.5714287076382653,0.6250002753390483,0
66,28-2-2023_15:49:14:601985,paved,cons-acc-40,-0.8628911049475465,-1.252042149010859,3.8342506415919737,-0.01584457299605209,0.038418997621057036,0.0031835881656873018,0.8750015887053876,0.5714287076382653,0.6250002753390483,0
67,28-2-2023_15:49:14:658015,paved,cons-acc-40,-0.7421816900512959,-1.5230861971884637,2.7179615982398957,-0.038596873828397035,-0.03958328460914115,0.0037738965829901367,0.8750015887053876,0.2857144491659182,0.375000275519539,0
68,28-2-2023_15:49:14:706009,paved,cons-acc-40,-0.7676191156331729,-2.9136854288781677,2.377718248198059,-0.06903621024311557,-0.0046216762962205254,-0.010360917152458161,0.8750015887053876,0.2857144491659182,0.375000275519539,0
69,28-2-2023_15:49:14:753959,paved,cons-acc-40,-0.3037989101860743,-2.2522242280040614,-0.6537170566456005,-0.07648804489375262,0.0004456485059345988,-0.012449986619998812,0.5000017320315661,0.4285714830553062,0.49999944950239295,0
70,28-2-2023_15:49:14:809950,paved,cons-acc-40,-0.7707522441684009,-1.3131512534419514,-0.8985428901137078,-0.007917872502870849,-0.02518240470491483,0.0025974728318003334,0.5000017320315661,0.4285714830553062,0.49999944950239295,0
71,28-2-2023_15:49:14:857944,paved,cons-acc-40,-1.0205955157801565,-2.1795357448588377,-0.37358373955241286,0.012712419297653012,-0.006084490836096253,0.004108058068413829,0.6250001433261806,0.5714287076382653,0.375000275519539,0
72,28-2-2023_15:49:14:913937,paved,cons-acc-40,0.18487777392805693,-2.7099834232329196,-2.171141538552895,0.008157825700626214,0.0009208541818717568,0.012931592235473442,0.6250001433261806,0.5714287076382653,0.375000275519539,0
73,28-2-2023_15:49:14:969927,paved,cons-acc-40,-0.06737009935302912,-1.8599751815976897,-1.2515435231470788,0.038113006971034175,-0.0378240201770107,0.01783901059629486,0.7500008660157841,0.2857144491659182,0.375000275519539,0
74,28-2-2023_15:49:15:17925,paved,cons-acc-40,-0.4275296381674713,-1.0154124305155203,-0.7366330223266105,0.026086583920658865,0.007659161782239653,0.004445119591781954,0.7500008660157841,0.2857144491659182,0.375000275519539,0
75,28-2-2023_15:49:15:65927,paved,cons-acc-40,-0.05184367400346257,-1.3076029584508657,1.2258838146716307,0.04298193904823373,-0.021524611067563443,0.0015429904134759975,0.7500008660157841,0.2857144491659182,0.375000275519539,0
76,28-2-2023_15:49:15:121957,paved,cons-acc-40,-0.5998815915109239,-0.4619593158596532,0.16143014870704242,0.0032753346214803095,0.030163787996479664,0.005700641108523757,0.7500008660157841,0.2857144491659182,0.375000275519539,0
77,28-2-2023_15:49:15:169925,paved,cons-acc-40,-0.5447249235023539,-1.5046180372864923,1.028517137378178,-0.0463464604232789,-0.005849895892536209,0.0060341544711335045,0.7500008660157841,0.5714287076382653,0.49999944950239295,0
78,28-2-2023_15:49:15:225904,paved,cons-acc-40,-0.011247795037291897,-1.982826304601467,1.1164099972143815,-0.07207280846687596,-0.008942306105979365,0.0031379287771864817,0.7500008660157841,0.5714287076382653,0.49999944950239295,0
79,28-2-2023_15:49:15:273936,paved,cons-acc-40,0.15786984139910568,-2.7737700090745845,0.7862776553429544,-0.08649477308687094,0.006955065199953328,0.005174168840208134,0.7500008660157841,0.4285714830553062,0.125000274978066,0
80,28-2-2023_15:49:15:329884,paved,cons-acc-40,0.29925542167935537,-2.5182199011945205,0.9770566864995225,-0.03624040975715402,-0.013351351495590393,0.005680533524449672,0.7500008660157841,0.4285714830553062,0.125000274978066,0
81,28-2-2023_15:49:15:377875,paved,cons-acc-40,-0.11304598525620213,-2.5109888030397496,1.904257773247014,0.006844972426137699,0.0014592637560370946,0.005142660299232963,0.7500008660157841,0.2857144491659182,0.375000275519539,0
82,28-2-2023_15:49:15:435969,paved,cons-acc-40,0.06769248675488532,-2.2347006250214894,1.6339191658016383,0.035884527244209916,0.031849325786412155,0.0030157137321326173,0.7500008660157841,0.2857144491659182,0.375000275519539,0
83,28-2-2023_15:49:15:484033,paved,cons-acc-40,-0.09086728764152605,-1.6454346054692917,2.0908640747182083,0.013089514766675456,0.004211700386563207,0.0031867073249201017,0.7500008660157841,0.2857144491659182,0.375000275519539,0
84,28-2-2023_15:49:15:531970,paved,cons-acc-40,-0.24445695811073537,-2.351845665140848,1.7393321485155966,-0.05853651864934582,-0.011828185240735214,0.010499017021134665,0.7500008660157841,0.2857144491659182,0.375000275519539,0
85,28-2-2023_15:49:15:588022,paved,cons-acc-40,-0.44601903573306856,-2.0901130039544253,0.40529343223673564,-0.04168638889245002,0.01618295738280001,0.010298615536775824,0.7500008660157841,0.5714287076382653,0.49999944950239295,0
86,28-2-2023_15:49:15:636015,paved,cons-acc-40,-0.823729036264695,-2.4448637923396874,0.4614869996080583,-0.02958021700103717,-0.031045282453817984,0.014655098251537619,0.7500008660157841,0.5714287076382653,0.49999944950239295,0
87,28-2-2023_15:49:15:692009,paved,cons-acc-40,-0.386007508039707,-1.4233867278878816,2.2644678021194133,-0.021168274307506875,-0.029145273831255536,0.006384812176513786,0.7500008660157841,0.5714287076382653,0.49999944950239295,0
88,28-2-2023_15:49:15:747954,paved,cons-acc-40,-0.7934088154694356,-0.7352862009170884,1.236951306099639,-0.021710691616069828,-0.031315048198475165,0.011395276041557389,0.7500008660157841,0.5714287076382653,0.49999944950239295,0
89,28-2-2023_15:49:15:795950,paved,cons-acc-40,0.14696694137240174,-0.5106056868019072,0.7265033271806766,-0.015384319197332066,-0.01963227584463248,0.0086529364675066,0.6250001433261806,0.7142857415276529,0.49999944950239295,0
90,28-2-2023_15:49:15:843938,paved,cons-acc-40,0.2567451730799699,-1.388892682506155,-0.04117760395290382,-0.025085562670615038,-0.00590357341840086,0.0063170777156553596,0.6250001433261806,0.7142857415276529,0.49999944950239295,0
91,28-2-2023_15:49:15:899937,paved,cons-acc-40,-0.13812979512743612,-1.5864440125737103,-0.47382588214698,-0.010150394985704138,-0.019754361279092386,0.0004016821891597716,0.6250001433261806,0.4285714830553062,0.49999944950239295,0
92,28-2-2023_15:49:15:956770,paved,cons-acc-40,-0.18937360064583864,-0.6804969668459467,0.566332272644064,0.02246751779004781,0.0028204424176061747,0.006556290228322836,0.6250001433261806,0.4285714830553062,0.49999944950239295,0
93,28-2-2023_15:49:16:3998,paved,cons-acc-40,-0.6305073317505542,-0.19295888986732418,0.011270352582945065,-0.04522420634217937,0.0018264624495569913,0.003667043801803773,0.6250001433261806,0.5714287076382653,0.24999944896091997,0
94,28-2-2023_15:49:16:52052,paved,cons-acc-40,-0.8022739676817418,-0.7150808972279432,-0.5121201819510256,-0.04317938728505345,0.005846254572168409,0.007121220409671975,0.6250001433261806,0.5714287076382653,0.24999944896091997,0
95,28-2-2023_15:49:16:107985,paved,cons-acc-40,-1.1922062288000186,-0.5538700461829882,-1.8110711555965984,-0.04920266420224256,0.0268819266328897,0.009872904138234955,0.7500008660157841,0.4285714830553062,0.375000275519539,0
96,28-2-2023_15:49:16:155991,paved,cons-acc-40,-1.2113159686297854,-0.9570873317040856,-0.992126837895422,-0.048252430887185886,0.006099472000528006,0.0014179841059927239,0.7500008660157841,0.4285714830553062,0.375000275519539,0
97,28-2-2023_15:49:16:211983,paved,cons-acc-40,-1.6695255198021188,-1.2716497813240992,1.8966891575469236,-0.011288147836088468,-0.01181025664381206,0.006189539874502945,0.7500008660157841,0.5714287076382653,0.24999944896091997,0
98,28-2-2023_15:49:16:268011,paved,cons-acc-40,-0.6251463150553922,0.05137106006899761,2.011282706010818,0.010363337827607084,0.02293476468871185,0.004959572171519865,0.7500008660157841,0.5714287076382653,0.24999944896091997,0
99,28-2-2023_15:49:16:316007,paved,cons-acc-40,0.0666394790447351,-0.6995920060389338,1.3516101911260825,0.005595750612155493,0.013083142436942339,0.0038390202302682123,0.3749998551591448,0.7142857415276529,0.49999944950239295,0
100,28-2-2023_15:49:16:363956,paved,cons-acc-40,-0.35117179247163527,-0.6886725951726004,0.7010443861120018,-0.008760488284503912,0.019081399954734492,0.005763337162715247,0.3749998551591448,0.7142857415276529,0.49999944950239295,0
101,28-2-2023_15:49:16:419949,paved,cons-acc-40,-1.1227753429669884,-1.6471701450082565,2.2363179849791197,-0.009409400204001469,0.014536408568146145,0.0007467078851615292,0.7500008660157841,0.2857144491659182,0.49999944950239295,0
102,28-2-2023_15:49:16:467998,paved,cons-acc-40,-0.6555200171118756,-1.8290680444308625,1.667501844112803,-0.04320676070089433,-0.015123449931067283,-0.006068284165085271,0.7500008660157841,0.2857144491659182,0.49999944950239295,0
103,28-2-2023_15:49:16:523994,paved,cons-acc-40,-0.2099717343308125,-2.402385398004185,0.6409808785688957,-0.027180346153456342,-0.044215162500591404,0.0006691871053295766,0.6250001433261806,0.5714287076382653,0.49999944950239295,0
104,28-2-2023_15:49:16:579926,paved,cons-acc-40,0.689059251104142,-2.082970514086542,-0.471105460949399,-0.014797599099018824,-0.01475224195816999,-0.002201413518368288,0.6250001433261806,0.5714287076382653,0.49999944950239295,0
105,28-2-2023_15:49:16:627942,paved,cons-acc-40,0.3610861925947192,-2.1212909131852395,1.0429789944476882,0.010858778818218598,0.017471213055433445,0.007629195284957995,0.7500008660157841,0.2857144491659182,0.24999944896091997,0
106,28-2-2023_15:49:16:675929,paved,cons-acc-40,-0.16163978477786434,-2.0049541156366613,1.9323169770134345,-0.006524400387385597,0.008043694792025035,0.007919976787229586,0.7500008660157841,0.2857144491659182,0.24999944896091997,0
107,28-2-2023_15:49:16:731957,paved,cons-acc-40,-0.33642290216854587,-1.2262528370766521,1.1331985743209803,-0.06340620828927158,0.022629055782586456,-0.007907894871119283,0.8750015887053876,0.5714287076382653,0.49999944950239295,0
108,28-2-2023_15:49:16:787900,paved,cons-acc-40,-0.5713182244448337,-1.2280413746597751,0.6795702496772233,-0.04271235728285081,0.0011668554332175014,-0.004548831391569357,0.8750015887053876,0.5714287076382653,0.49999944950239295,0
109,28-2-2023_15:49:16:835901,paved,cons-acc-40,-0.3398280730805593,-0.8189252626628918,1.6324313400801498,-0.031174590265156864,-0.025592373433361328,-0.0011212681448222678,1.0,0.5714287076382653,0.375000275519539,0
110,28-2-2023_15:49:16:883897,paved,cons-acc-40,0.6282851565409987,-0.31103118956170284,2.2396504322435296,0.01786613852009601,-0.04215321202430155,-0.004748690335789988,1.0,0.5714287076382653,0.375000275519539,0
111,28-2-2023_15:49:16:939881,paved,cons-acc-40,1.4872580950891972,-1.176162562748112,2.275214793489416,0.044850086392788376,-0.037435561638239134,-0.0015422346952841007,1.0,0.2857144491659182,0.375000275519539,0
112,28-2-2023_15:49:16:987883,paved,cons-acc-40,0.6038055601637307,-1.8698959911618083,3.0605910675248005,0.06635849691151244,0.048778917516886594,-0.0027665650493766125,1.0,0.2857144491659182,0.375000275519539,0
113,28-2-2023_15:49:17:43915,paved,cons-acc-40,1.0158600679965273,-1.3408482660219043,2.0709953181127614,-3.398117035964543e-05,-0.03274779006350957,-0.0017618268837547827,0.6250001433261806,0.1428572245829591,0.24999944896091997,0
114,28-2-2023_15:49:17:99867,paved,cons-acc-40,0.7644476209940292,-1.9550747282204417,0.9230024777694645,-0.023574869155423367,-0.03128744966835722,0.0012295791021376071,0.6250001433261806,0.1428572245829591,0.24999944896091997,0
115,28-2-2023_15:49:17:147902,paved,cons-acc-40,-0.0085990433132348,-1.4831836232515812,1.6737900973879056,-0.031695184332702596,0.010731377093076422,0.007895808697170761,0.5000017320315661,0.8571427751667867,0.375000275519539,0
116,28-2-2023_15:49:17:195896,paved,cons-acc-40,0.028228090706564124,-0.6996320624380937,1.3271491793897994,0.006141231686580748,-0.030009636771905115,0.005178257005330467,0.5000017320315661,0.8571427751667867,0.375000275519539,0
117,28-2-2023_15:49:17:251846,paved,cons-acc-40,0.43412822822012204,-1.360985507363953,3.4763443140179757,0.1403961534460108,-0.03854596843850484,0.00497410818204378,0.8750015887053876,0.5714287076382653,0.375000275519539,0
118,28-2-2023_15:49:17:299887,paved,cons-acc-40,-0.31174239619918526,-1.6718879377744797,2.676690418490706,0.09422853759859096,0.02290836525096384,-4.89866149638021e-05,0.8750015887053876,0.5714287076382653,0.375000275519539,0
119,28-2-2023_15:49:17:355837,paved,cons-acc-40,0.09571756784981733,-0.939792214986165,1.247548224655355,-0.028623001046738733,-0.025205709503795352,0.009413194683470877,0.7500008660157841,0.4285714830553062,0.24999944896091997,0
120,28-2-2023_15:49:17:403821,paved,cons-acc-40,-0.5657854196313578,-0.5214848543275483,1.4091732224373346,-0.06690880276397818,-0.005755778089819058,0.005333550583522893,0.7500008660157841,0.4285714830553062,0.24999944896091997,0
121,28-2-2023_15:49:17:459860,paved,cons-acc-40,0.17665135856408665,0.9647042365453908,0.8382500777507257,-0.027045724923113378,-0.06910894964864601,0.0014872282192593552,0.7500008660157841,0.5714287076382653,0.49999944950239295,0
122,28-2-2023_15:49:17:507824,paved,cons-acc-40,0.04253502212434854,0.36734036337744624,3.127766481227412,-0.026492160703814407,-0.06098233717257146,-0.003165543432708221,0.7500008660157841,0.5714287076382653,0.49999944950239295,0
123,28-2-2023_15:49:17:563806,paved,cons-acc-40,-0.7582203689692584,-0.06793685784031733,0.7295733810182061,-0.09078211530691158,-0.053954263027050496,-0.006142497993783592,0.5000017320315661,0.7142857415276529,0.375000275519539,0
124,28-2-2023_15:49:17:619793,paved,cons-acc-40,-0.8199569875233923,-1.0131573703849308,1.0634985946632054,-0.09974122991917855,-0.09471438009629263,-0.0027177608051502963,0.5000017320315661,0.7142857415276529,0.375000275519539,0
125,28-2-2023_15:49:17:667790,paved,cons-acc-40,-0.4443920875354194,-0.24242700357613012,-1.0272597948544084,-0.055132100747868694,-0.05873919903668201,-0.0075847765136971956,0.7500008660157841,0.4285714830553062,0.6250002753390483,0
126,28-2-2023_15:49:17:715792,paved,cons-acc-40,-0.47650800393117865,0.2365055456778612,-1.5716721038839254,-0.048897220587991175,-0.034582079079041095,-0.002140059504812917,0.7500008660157841,0.4285714830553062,0.6250002753390483,0
127,28-2-2023_15:49:17:771776,paved,cons-acc-40,0.02453273485765639,0.12208480686516783,-0.9725811422742494,-0.03876377014934637,-0.10683232580244995,0.0011026531825641447,0.8750015887053876,0.5714287076382653,0.375000275519539,0
128,28-2-2023_15:49:17:819770,paved,cons-acc-40,0.27462484841243917,-0.9614901277025945,-0.33695087195918416,-0.0326121638853578,-0.02979532708332021,0.002721678771269092,0.8750015887053876,0.5714287076382653,0.375000275519539,0
129,28-2-2023_15:49:17:875761,paved,cons-acc-40,0.16542201182209487,-1.4324155493017294,0.7947085130039199,0.022459667331772515,0.03117713072570208,0.002026340297340851,0.6250001433261806,0.4285714830553062,0.49999944950239295,0
130,28-2-2023_15:49:17:924781,paved,cons-acc-40,0.19531160176454151,-1.89337992896927,-0.29840515268359924,0.0022666241912881364,0.016949694723360144,-0.0013920863970837464,0.6250001433261806,0.4285714830553062,0.49999944950239295,0
131,28-2-2023_15:49:17:972815,paved,cons-acc-40,0.5228804057808695,-1.599628209709784,0.549555989457506,0.014004725301309012,-7.32495951315977e-05,-0.0009466857478775216,0.7500008660157841,0.7142857415276529,0.49999944950239295,0
132,28-2-2023_15:49:18:28848,paved,cons-acc-40,0.8850881005760378,-0.2253654095500961,-1.2841999574375544,-0.036933077491769994,0.02302427501204392,-0.0030975608372792196,0.7500008660157841,0.7142857415276529,0.49999944950239295,0
133,28-2-2023_15:49:18:84790,paved,cons-acc-40,0.18706161938011912,-0.5253406914177113,-1.727209226131706,-0.04087137078356368,0.02019846801039272,0.00555897636061067,0.8750015887053876,0.5714287076382653,0.375000275519539,0
134,28-2-2023_15:49:18:132826,paved,cons-acc-40,-0.819088260805727,-1.3672102356176241,0.1951480562996566,-0.06687912344489227,0.047660514320671504,-2.9667999255777663e-05,0.8750015887053876,0.5714287076382653,0.375000275519539,0
135,28-2-2023_15:49:18:188769,paved,cons-acc-40,-2.273860501852826,-1.0858389859543527,1.1944244932021757,-0.0021157052809701454,0.002760312211243454,-0.0031437299921790295,0.8750015887053876,0.5714287076382653,0.6250002753390483,0
136,28-2-2023_15:49:18:236762,paved,cons-acc-40,-1.6362531462054761,-1.1686069215161132,1.797563812696302,-0.06361215361043317,-5.053078581640459e-05,-0.007727721695480637,0.8750015887053876,0.5714287076382653,0.6250002753390483,0
137,28-2-2023_15:49:18:292756,paved,cons-acc-40,-1.1029825695898698,0.06049655651728347,1.2089831894438416,-0.047834981202765886,-0.028231129683334865,-0.001480231292182962,0.6250001433261806,0.5714287076382653,0.6250002753390483,0
138,28-2-2023_15:49:18:340772,paved,cons-acc-40,-0.7993930169983718,0.02300083761332783,0.7205856054260349,-0.008986761515398338,-0.028956161741133017,0.0029166263413327844,0.6250001433261806,0.5714287076382653,0.6250002753390483,0
139,28-2-2023_15:49:18:396791,paved,cons-acc-40,-0.7287711956378776,-0.8511789240341996,1.01288626624971,0.005867315274031389,0.006021705022246471,0.006869398062969565,0.3749998551591448,0.5714287076382653,0.49999944950239295,0
140,28-2-2023_15:49:18:444739,paved,cons-acc-40,-0.8772794121067742,-0.9291941656595999,1.3194929999952991,0.01335806759739028,0.03571508221791497,0.011911790217894099,0.3749998551591448,0.5714287076382653,0.49999944950239295,0
141,28-2-2023_15:49:18:499977,paved,cons-acc-40,-1.373523526377766,-1.8968257668520208,2.57893499978786,-0.018541196933547704,0.031936101179447056,0.012542201883631348,0.5000017320315661,0.2857144491659182,0.49999944950239295,0
142,28-2-2023_15:49:18:547801,paved,cons-acc-40,-2.892802760620073,-0.6266506435743748,6.303474522157957,-0.037117425516555766,0.039993246081654006,0.006914425944946725,0.5000017320315661,0.2857144491659182,0.49999944950239295,0
143,28-2-2023_15:49:18:603833,paved,cons-acc-40,-1.8269894403170541,-1.176328703533152,4.177796797688259,-0.05953077895567062,0.006861727292219934,0.006264522638596565,0.6250001433261806,0.4285714830553062,0.375000275519539,0
144,28-2-2023_15:49:18:651525,paved,cons-acc-40,-1.4125937357109968,-1.3018783828664326,3.7088713349723323,-0.05843953824634225,-0.020636705354972484,0.012593554877720792,0.6250001433261806,0.4285714830553062,0.375000275519539,0
145,28-2-2023_15:49:18:705846,paved,cons-acc-40,-1.136830686240725,-0.9757494296993219,4.202186581221473,0.006199342485090312,-0.029880308854167977,0.027457791866596158,0.7500008660157841,0.5714287076382653,0.375000275519539,0
146,28-2-2023_15:49:18:761841,paved,cons-acc-40,-1.834692734551374,-0.4161885304752183,5.082719070647268,0.04290000410240409,-0.03681221693030799,0.03209197288758131,0.7500008660157841,0.5714287076382653,0.375000275519539,0
147,28-2-2023_15:49:18:809834,paved,cons-acc-40,-1.0972214906718092,-1.3603007552529496,4.1438789125636895,0.08469192891187245,-0.007146464488378943,0.03116980408623001,0.8750015887053876,0.7142857415276529,0.375000275519539,0
148,28-2-2023_15:49:18:857828,paved,cons-acc-40,-1.1993873493712974,-1.8671177219564008,4.266230929443025,0.12920638028761794,0.023633716187521612,0.032806788445981304,0.8750015887053876,0.7142857415276529,0.375000275519539,0
149,28-2-2023_15:49:18:913772,paved,cons-acc-40,0.16525375330199488,-1.8250512625210258,3.0699821915533843,0.04891149212373437,0.017892559174197676,0.023270011086943182,0.5000017320315661,0.4285714830553062,0.375000275519539,0
150,28-2-2023_15:49:18:961769,paved,cons-acc-40,-0.05158421601726201,-0.3828338942839269,1.5227616376718327,0.0010308341444609792,0.04866962224630575,0.017769346567521146,0.5000017320315661,0.4285714830553062,0.375000275519539,0
151,28-2-2023_15:49:19:17766,paved,cons-acc-40,-1.1157114471356127,-0.8613380183060433,1.2040520042358742,-0.043999127027369515,0.036856613232742134,0.021231939585522337,0.6250001433261806,0.5714287076382653,0.375000275519539,0
152,28-2-2023_15:49:19:73752,paved,cons-acc-40,0.15683691420692525,-0.752942448306491,2.1099205472543794,-0.07637345619049674,0.04786885130955702,0.010361344265306278,0.6250001433261806,0.5714287076382653,0.375000275519539,0
153,28-2-2023_15:49:19:121750,paved,cons-acc-40,0.006914436016078496,1.2576927334136516,1.7201811243726008,-0.09167154002379885,0.0500533362294657,0.005120879226870719,0.6250001433261806,0.4285714830553062,0.49999944950239295,0
154,28-2-2023_15:49:19:175987,paved,cons-acc-40,-0.7594895359639606,1.4002139178660908,1.893488667523846,-0.06156336246438425,0.024042345054213723,0.004954853557009821,0.6250001433261806,0.4285714830553062,0.49999944950239295,0
155,28-2-2023_15:49:19:224033,paved,cons-acc-40,-0.4650482288653894,0.5015546677128023,2.6751853203452285,0.03896272699277806,0.0015166363604678795,0.008438125439488625,0.7500008660157841,0.2857144491659182,0.49999944950239295,0
156,28-2-2023_15:49:19:271990,paved,cons-acc-40,-0.38769426979656524,-0.8743217366035939,2.314117000304745,0.0034260841495412364,0.01669360918314925,0.0021751514773627684,0.7500008660157841,0.2857144491659182,0.49999944950239295,0
157,28-2-2023_15:49:19:327987,paved,cons-acc-40,-0.1535342996899833,0.39354713788246276,0.8271217397663675,-0.03672702451356842,-0.06087424378656268,-0.002049946119479962,0.6250001433261806,0.5714287076382653,0.49999944950239295,0
158,28-2-2023_15:49:19:383977,paved,cons-acc-40,-0.020145500805934885,1.3762711357670225,-0.8950099655928507,-0.005952500033820592,0.05249136750233375,0.005202733842011206,0.6250001433261806,0.5714287076382653,0.49999944950239295,0
159,28-2-2023_15:49:19:431970,paved,cons-acc-40,-0.07560513571922006,0.05309062155496269,-1.747917249493856,-0.008505417992359513,0.021395401425725172,-0.0010339611030571235,0.7500008660157841,0.5714287076382653,0.49999944950239295,0
160,28-2-2023_15:49:19:479965,paved,cons-acc-40,0.3874664322775245,0.3841624502062147,-2.661284510646924,-0.0167311938223536,-0.026941097168524705,-0.004542442849567251,0.7500008660157841,0.5714287076382653,0.49999944950239295,0
161,28-2-2023_15:49:19:537040,paved,cons-acc-40,-0.0928050756329526,-1.0193200104463291,-1.629633058169481,0.023238273552942508,0.02126310044073057,0.006843601224404434,0.6250001433261806,0.5714287076382653,0.6250002753390483,0
162,28-2-2023_15:49:19:586399,paved,cons-acc-40,-0.6047047881554071,-0.6537184409307789,-0.9252183268462272,-0.020958518353989132,0.0247799969731477,0.005886856920968778,0.6250001433261806,0.5714287076382653,0.6250002753390483,0
163,28-2-2023_15:49:19:642351,paved,cons-acc-40,-1.0094524235782973,-0.5695368095243066,0.3670687616048002,-0.061552023487867175,-0.026711376737158822,0.002380701970143981,0.7500008660157841,0.5714287076382653,0.49999944950239295,0
164,28-2-2023_15:49:19:690386,paved,cons-acc-40,-0.56087842950083,-0.9360299820520672,-1.8075193064144477,-0.1168768299709261,0.0017862008094630677,-0.0023348668538742544,0.7500008660157841,0.5714287076382653,0.49999944950239295,0
165,28-2-2023_15:49:19:746329,paved,cons-acc-40,-0.9193930934971086,-1.4027183771053495,1.0625333482001609,-0.05216120437168138,0.023706343834715364,0.008469158045121187,0.5000017320315661,0.4285714830553062,0.6250002753390483,0
166,28-2-2023_15:49:19:794338,paved,cons-acc-40,-0.9079807867211007,-1.4442136571768187,1.053067466968943,0.004970047509432064,0.02449580013739025,0.007671000492658361,0.5000017320315661,0.4285714830553062,0.6250002753390483,0
167,28-2-2023_15:49:19:850323,paved,cons-acc-40,-1.9259815546774515,-2.081198507359187,3.1117865550195076,0.0004283926560056193,0.02107550239191875,0.006341461849639141,0.5000017320315661,0.7142857415276529,0.24999944896091997,0
168,28-2-2023_15:49:19:898310,paved,cons-acc-40,-0.5938930564996403,-0.295777260365661,1.9904365512829634,-0.04365131669886959,-0.04442741219845948,-0.005783360869012791,0.5000017320315661,0.7142857415276529,0.24999944896091997,0
169,28-2-2023_15:49:19:954313,paved,cons-acc-40,-0.21383134730756448,-0.7777126247592252,2.16944940232323,-0.026239965218808902,-0.05125432926374837,-0.005251482509522185,0.7500008660157841,0.2857144491659182,0.375000275519539,0
170,28-2-2023_15:49:20:2299,paved,cons-acc-40,-1.1339405419142103,-1.457529767305818,2.626714031306984,-0.00040938078789096513,-0.05662525150163001,0.0060748163632294485,0.7500008660157841,0.2857144491659182,0.375000275519539,0
171,28-2-2023_15:49:20:60773,paved,cons-acc-40,-1.0571631343850518,0.5264222237511842,5.733058138071908,0.005016991856324175,-0.11525528838823007,0.001735979478403482,1.0,0.2857144491659182,0.24999944896091997,0
172,28-2-2023_15:49:20:109895,paved,cons-acc-40,-0.6631375872611889,1.048741577894726,4.447229437725983,0.03240671350013815,-0.039124310331520445,0.0105430350019256,1.0,0.2857144491659182,0.24999944896091997,0
173,28-2-2023_15:49:20:157780,paved,cons-acc-40,-0.8368079778884294,-0.6715355387119328,1.383865741628843,-0.049067194118857814,-0.05386212047624018,-0.0029578178501835067,0.5000017320315661,0.7142857415276529,0.7500000001804906,0
174,28-2-2023_15:49:20:213490,paved,cons-acc-40,-0.9107135622000051,-0.9286739728970703,-0.4884079603941307,-0.07890793898183628,-0.005980821297397805,-0.0011182095652296324,0.5000017320315661,0.7142857415276529,0.7500000001804906,0
175,28-2-2023_15:49:20:269647,paved,cons-acc-40,-0.1137786643793186,-2.502481212766553,-0.6766849860713282,-0.06052426404356251,-0.03715165627670826,-0.01129479500669513,0.7500008660157841,0.5714287076382653,0.49999944950239295,0
176,28-2-2023_15:49:20:318505,paved,cons-acc-40,0.16335448022037774,-2.2005894192224575,0.4373264652804665,-0.024268003547617253,-0.0377931286783397,-0.0032081046326730735,0.7500008660157841,0.5714287076382653,0.49999944950239295,0
177,28-2-2023_15:49:20:366496,paved,cons-acc-40,1.1938911444601474,-2.1149401099716107,-0.8523981179138203,-0.10072048984922072,0.04527513901021575,-0.006510679142550982,0.7500008660157841,0.1428572245829591,0.6250002753390483,0
178,28-2-2023_15:49:20:422442,paved,cons-acc-40,0.4342219763819397,-3.133797407042274,-0.19938321688781124,-0.06212893325254835,0.024313218413093817,0.0038827666779181124,0.7500008660157841,0.1428572245829591,0.6250002753390483,0
179,28-2-2023_15:49:20:470484,paved,cons-acc-40,1.5952860653481493,-2.8827284888527562,-0.7610521667192545,-0.0639711324045493,-0.09399761898915009,-0.02129524669396334,0.7500008660157841,0.5714287076382653,0.125000274978066,0
180,28-2-2023_15:49:20:526436,paved,cons-acc-40,2.393565631047254,-2.4208425624401864,-2.0218131099774355,-0.04578355231442545,-0.027616861117245248,-0.020189123029735037,0.7500008660157841,0.5714287076382653,0.125000274978066,0
181,28-2-2023_15:49:20:574422,paved,cons-acc-40,0.7421926598893549,-2.505662360909357,1.4931438126420464,0.028332025216220094,0.01140327076493234,0.007786177958819598,0.7500008660157841,0.5714287076382653,0.49999944950239295,0
182,28-2-2023_15:49:20:630415,paved,cons-acc-40,0.14004547354590013,-4.2669250276822055,1.4647227349671528,-0.017332262203117024,0.0621405570553389,0.005495366140085984,0.7500008660157841,0.5714287076382653,0.49999944950239295,0
183,28-2-2023_15:49:20:678418,paved,cons-acc-40,-0.8728103872995882,-3.7687900602276097,-0.702137437217502,-0.06092637010423739,0.003350109248270526,0.004018820010551355,0.5000017320315661,0.4285714830553062,0.49999944950239295,0
184,28-2-2023_15:49:20:734403,paved,cons-acc-40,-0.969926530430353,-3.936616287607036,-0.7747041504415599,-0.08417046181415902,0.042492123246686796,-0.015587205898742195,0.5000017320315661,0.4285714830553062,0.49999944950239295,0
185,28-2-2023_15:49:20:790406,paved,cons-acc-40,-0.6563650279802611,-2.341607785201133,-2.171142082262921,-0.055717446213243496,-0.0144809081155991,-0.005179384105587218,0.8750015887053876,0.4285714830553062,0.24999944896091997,0
186,28-2-2023_15:49:20:838406,paved,cons-acc-40,0.21893392644388,-0.577706152333658,-0.8053936189490676,-0.11517907387125846,3.314508958367386e-05,-0.027875276278231324,0.8750015887053876,0.4285714830553062,0.24999944896091997,0
187,28-2-2023_15:49:20:886396,paved,cons-acc-40,0.9199932769628583,-1.762138611425267,-0.3655948429138038,-0.06877003174304494,-0.006109813303278522,-0.014965347690658095,0.8750015887053876,0.7142857415276529,0.49999944950239295,0
188,28-2-2023_15:49:20:942375,paved,cons-acc-40,-0.2768680325604178,-1.7136267073161786,0.7755927313798854,0.028155260253309472,0.01591970287998287,-0.015056820429973125,0.8750015887053876,0.7142857415276529,0.49999944950239295,0
189,28-2-2023_15:49:20:990416,paved,cons-acc-40,0.28237920621007306,-2.7510738395700858,0.39949116231095033,0.00391963673376448,-0.016133716426347654,-0.023404140659887687,0.7500008660157841,0.5714287076382653,0.24999944896091997,0
190,28-2-2023_15:49:21:46421,paved,cons-acc-40,1.14810260814858,-2.1021546035072345,0.20267243664881757,0.01580096435288436,-0.0010790167632935069,-0.02071986864497805,0.7500008660157841,0.5714287076382653,0.24999944896091997,0
191,28-2-2023_15:49:21:95426,paved,cons-acc-40,2.317127515048551,1.0189617449829385,-0.9197665479008623,-0.014865421786549593,0.008659000220848295,-0.019465191843096457,0.6250001433261806,0.4285714830553062,0.49999944950239295,0
192,28-2-2023_15:49:21:143491,paved,cons-acc-40,3.412358385628844,-0.1139063769163915,-0.9199406667558243,0.013184523252321792,0.0017759178528941877,-0.014797361943285906,0.6250001433261806,0.4285714830553062,0.49999944950239295,0
193,28-2-2023_15:49:21:199484,paved,cons-acc-40,3.2085383006345736,-1.3532965552728673,-0.2157773135029547,-0.0007193445912376719,-0.002097924639728571,-0.024555717689238952,0.7500008660157841,0.4285714830553062,0.49999944950239295,0
194,28-2-2023_15:49:21:255428,paved,cons-acc-40,1.6723260738985772,0.27753161631309564,-0.2525474053091445,0.039950323099938366,0.03324259602305983,-0.010135446882783535,0.7500008660157841,0.4285714830553062,0.49999944950239295,0
195,28-2-2023_15:49:21:303420,paved,cons-acc-40,0.41607710851705026,0.5946289464275394,-1.0196068438330763,-0.038151262176032145,0.013322936335483124,-0.018213651311284468,0.3749998551591448,0.7142857415276529,0.49999944950239295,0
196,28-2-2023_15:49:21:359407,paved,cons-acc-40,1.4133472650445311,-0.9034432521009699,-1.4741481318192018,-0.017787742758925706,0.06098977044399635,-0.014554323857657193,0.3749998551591448,0.7142857415276529,0.49999944950239295,0
197,28-2-2023_15:49:21:407402,paved,cons-acc-40,0.6026957506246748,0.964242922261692,-1.101891279380311,-0.020622389204167587,0.032438363242980786,-0.017927028799527414,0.7500008660157841,0.5714287076382653,0.24999944896091997,0
198,28-2-2023_15:49:21:455420,paved,cons-acc-40,1.0567863363924281,0.553251063861387,-1.4302707617549686,-0.023701949320025763,-0.0018115662813899813,-0.011273052570922714,0.7500008660157841,0.5714287076382653,0.24999944896091997,0
199,28-2-2023_15:49:21:511395,paved,cons-acc-40,-0.08648347563891101,0.7100727033433407,-1.878866383075765,-0.06713038690326549,0.015304147389560402,-0.007801490405983005,0.8750015887053876,0.4285714830553062,0.375000275519539,0
200,28-2-2023_15:49:21:567401,paved,cons-acc-40,-0.4658886727374958,0.20291146767216306,-0.43188150744558595,-0.030909302618755484,0.052104557558924854,-0.0048670231872901,0.8750015887053876,0.4285714830553062,0.375000275519539,0
201,28-2-2023_15:49:21:615425,paved,cons-acc-40,0.4995273174319108,-1.2923575657953812,-2.111256471903169,0.008380645209705384,0.04351276854980636,-0.019099932584168963,0.6250001433261806,0.5714287076382653,0.375000275519539,0
202,28-2-2023_15:49:21:663369,paved,cons-acc-40,-0.23296720437409557,-2.096154568524108,-0.6443308032497042,-0.011295024082108494,0.026702110731029106,-0.0017574834141225563,0.6250001433261806,0.5714287076382653,0.375000275519539,0
203,28-2-2023_15:49:21:719369,paved,cons-acc-40,1.2089892399241484,-1.9028797684238714,0.012768654574715987,-0.020879751876149332,0.023402479236495643,0.004239181556123259,0.6250001433261806,0.5714287076382653,0.24999944896091997,0
204,28-2-2023_15:49:21:775360,paved,cons-acc-40,0.5404186964378616,-0.6243975632312737,-1.7061650017398513,-0.0882529675100099,0.030286410419900343,0.009259658697888144,0.6250001433261806,0.5714287076382653,0.24999944896091997,0
205,28-2-2023_15:49:21:823357,paved,cons-acc-40,2.258877562042866,-0.8718157546744386,-2.1012276658071847,-0.07165897180578149,-0.0020950366759147007,-0.004096285810196276,0.6250001433261806,0.4285714830553062,0.375000275519539,0
206,28-2-2023_15:49:21:879339,paved,cons-acc-40,-0.37623684853892625,-1.4227853880055397,-2.1991632991307273,-0.010155480328649186,-0.04786772048853454,-0.008932123435260408,0.6250001433261806,0.4285714830553062,0.375000275519539,0
207,28-2-2023_15:49:21:927333,paved,cons-acc-40,2.943695504785021,0.13309196972579862,-4.673731084654187,-0.05518484854853898,-0.07426965031149932,-0.016748148579111687,0.6250001433261806,0.4285714830553062,0.49999944950239295,0
208,28-2-2023_15:49:21:975328,paved,cons-acc-40,1.521724121518365,-0.08613442220809156,-4.323852139999281,-0.06263852191158824,-0.06439302623935006,0.0036324016809313187,0.6250001433261806,0.4285714830553062,0.49999944950239295,0
209,28-2-2023_15:49:22:31318,paved,cons-acc-40,1.8863003531019573,1.2660942885380275,-4.756395816888225,-0.13402083971881376,-0.11152800786181512,-0.014124334972169018,0.5000017320315661,0.8571427751667867,0.24999944896091997,0
210,28-2-2023_15:49:22:87312,paved,cons-acc-40,1.57765321756262,-1.785144282388878,-1.048828265358805,-0.016326892503711554,-0.021737177938286514,-0.011412552952655461,0.5000017320315661,0.8571427751667867,0.24999944896091997,0
211,28-2-2023_15:49:22:135306,paved,cons-acc-40,-1.7045242413667119,-1.8773979133212986,4.073665136997411,0.023007265258559027,0.09247918097147169,-0.010148644444047845,0.5000017320315661,0.8571427751667867,0.49999944950239295,0
212,28-2-2023_15:49:22:183301,paved,cons-acc-40,-0.3856277516785369,-1.4721295206704992,3.011581461732791,0.03639253439960137,-0.05752662783737307,-0.026888596215959355,0.5000017320315661,0.8571427751667867,0.49999944950239295,0
213,28-2-2023_15:49:22:239297,paved,cons-acc-40,-1.001480095090836,-0.9194714017674283,-0.6258646241951307,-0.032434469346028866,-0.04155704034992912,-0.025074257048518945,0.7500008660157841,0.5714287076382653,0.375000275519539,0
214,28-2-2023_15:49:22:287291,paved,cons-acc-40,-1.459378935126289,-1.4673656764720509,-0.8162195969903431,-0.027685222831347403,-0.058632985619014616,-0.006770470254866805,0.7500008660157841,0.5714287076382653,0.375000275519539,0
215,28-2-2023_15:49:22:339943,paved,cons-acc-40,0.09800475633887817,-1.9262842540372005,0.3824480066540349,0.028560383484841356,0.014528421533091501,-0.007529175460073058,0.7500008660157841,0.1428572245829591,0.6250002753390483,0
216,28-2-2023_15:49:22:395962,paved,cons-acc-40,0.7561904099158421,-0.45387120848554896,1.4532659362948905,0.021747204679563835,0.037317772852689585,-0.00035190802183831214,0.7500008660157841,0.1428572245829591,0.6250002753390483,0
217,28-2-2023_15:49:22:451953,paved,cons-acc-40,-0.5717612306401869,-1.1961922972952457,1.791843473297837,-0.06712606289798367,0.024766972860774415,-0.006083055055971319,0.6250001433261806,0.7142857415276529,0.49999944950239295,0
218,28-2-2023_15:49:22:499940,paved,cons-acc-40,-0.6381864777179738,-0.30834685204667633,-1.7139300083113675,-0.10476639718742148,-0.04661457922059973,0.009688645076080107,0.6250001433261806,0.7142857415276529,0.49999944950239295,0
219,28-2-2023_15:49:22:547945,paved,cons-acc-40,-1.0125032007649528,-1.5152398012455757,-0.949606689186203,-0.07101593361909464,0.03596862252170179,0.0006483538899448148,0.25000028816703573,0.5714287076382653,0.375000275519539,0
220,28-2-2023_15:49:22:603972,paved,cons-acc-40,-1.1077560356371627,-0.11827899839673917,-2.98258444413098,-0.11540898734879723,-0.05599614085845949,-0.01565655874102062,0.25000028816703573,0.5714287076382653,0.375000275519539,0
221,28-2-2023_15:49:22:651964,paved,cons-acc-40,-0.6807801284361819,-0.2105016616824878,-2.768222894446864,0.010431927703819427,0.040452997801759365,-0.0006019686141189966,0.6250001433261806,0.5714287076382653,0.375000275519539,0
222,28-2-2023_15:49:22:707959,paved,cons-acc-40,2.1000377516269015,-2.481731709827555,-3.3836218927657042,-0.06950473556017409,-0.02534673339551801,-0.014306644309066306,0.6250001433261806,0.5714287076382653,0.375000275519539,0
223,28-2-2023_15:49:22:763904,paved,cons-acc-40,1.4666927219590815,-2.805305436121893,-0.31753010769464174,0.0378508060624443,0.027581373157797524,0.015068677906783566,0.8750015887053876,0.2857144491659182,0.375000275519539,0
224,28-2-2023_15:49:22:811916,paved,cons-acc-40,1.4522611264202536,-1.305263278964979,2.4743587832160787,0.017514766092586745,0.09505579721771118,0.0006842725448204089,0.8750015887053876,0.2857144491659182,0.375000275519539,0
225,28-2-2023_15:49:22:859939,paved,cons-acc-40,1.410607624758086,-1.3409905167874516,4.490513574093398,0.09331383076227526,0.04257336391172986,-0.00591228667976089,0.5000017320315661,0.4285714830553062,0.49999944950239295,0
226,28-2-2023_15:49:22:915896,paved,cons-acc-40,0.822016612911433,-1.0840388631656668,1.9895601208179534,0.019298208238724246,-0.0009606526313565567,-0.022635785836451053,0.5000017320315661,0.4285714830553062,0.49999944950239295,0
227,28-2-2023_15:49:22:971877,paved,cons-acc-40,0.06817054557897495,0.054077663652418284,1.7163410468846085,0.053798529598132805,-0.0015840561572088333,-0.0004667417973284599,0.5000017320315661,0.2857144491659182,0.375000275519539,0
228,28-2-2023_15:49:23:19871,paved,cons-acc-40,-0.46553239255643586,-2.023411604918726,0.4218180117156587,0.01723135774964034,-0.08477904701941717,0.004849273215423209,0.5000017320315661,0.2857144491659182,0.375000275519539,0
229,28-2-2023_15:49:23:67865,paved,cons-acc-40,-0.12841268169987707,-0.979815034347979,-1.436369576698441,-0.018738930221179242,-0.02980019438029087,-0.004514610988379695,0.6250001433261806,0.4285714830553062,0.49999944950239295,0
230,28-2-2023_15:49:23:124703,paved,cons-acc-40,-0.18611224714542385,-0.2169132541071127,-1.1085473342704508,0.018257919968314232,-0.003225318850819784,0.002252258918202993,0.6250001433261806,0.4285714830553062,0.49999944950239295,0
231,28-2-2023_15:49:23:172709,paved,cons-acc-40,-0.09310452585497091,-0.885800728699509,0.333953124373491,-0.06192897214191047,0.0036559390683650024,9.932101520863674e-05,0.3749998551591448,0.4285714830553062,0.49999944950239295,0
232,28-2-2023_15:49:23:228708,paved,cons-acc-40,0.26044186741988024,-0.9871285599038812,-0.22666632356531435,-0.11952635044262053,-0.000733787740805676,-0.002392647096582624,0.3749998551591448,0.4285714830553062,0.49999944950239295,0
233,28-2-2023_15:49:23:284698,paved,cons-acc-40,0.8001858085342861,-0.8877907715899901,-0.9832140475690521,-0.12073282915976949,0.0005227279838992316,-4.3805088490044344e-05,0.6250001433261806,0.4285714830553062,0.375000275519539,0
234,28-2-2023_15:49:23:332726,paved,cons-acc-40,0.6241303876985835,-0.8558995040516889,-1.3733783359097154,-0.06495989274171099,0.018689860201809117,0.0012752586470290547,0.6250001433261806,0.4285714830553062,0.375000275519539,0
235,28-2-2023_15:49:23:380720,paved,cons-acc-40,0.4941529114821687,-0.6577637809232189,-1.2003543300984747,0.0006691529083830278,0.02855776495092459,0.0073802897463418745,0.6250001433261806,0.4285714830553062,0.375000275519539,0
236,28-2-2023_15:49:23:436666,paved,cons-acc-40,-0.32307823129207475,1.753923342694957,-1.0785115573803485,0.007170036534410659,0.055785729946754625,0.0016432175360574872,0.6250001433261806,0.4285714830553062,0.375000275519539,0
237,28-2-2023_15:49:23:484661,paved,cons-acc-40,-0.116944995769283,1.272142054467695,-0.6020379143362606,-0.007892515562132826,0.025976425555665247,0.014581747027784125,0.6250001433261806,0.5714287076382653,0.375000275519539,0
238,28-2-2023_15:49:23:542330,paved,cons-acc-40,-0.7681982156296181,0.7502418493375587,0.5986803501799625,-0.018881459462625094,0.07962757642021884,0.01821581419751382,0.6250001433261806,0.5714287076382653,0.375000275519539,0
239,28-2-2023_15:49:23:590323,paved,cons-acc-40,-0.7176273338531863,0.3718788769909614,1.2438367562902195,-0.06034160890924818,0.029831614439821533,0.008464450752582064,0.5000017320315661,0.4285714830553062,0.49999944950239295,0
240,28-2-2023_15:49:23:638359,paved,cons-acc-40,-0.055797483713611595,-0.8350241038577975,-0.393837073874882,-0.045698589228655516,0.050856813655720444,0.0032456814805022815,0.5000017320315661,0.4285714830553062,0.49999944950239295,0
241,28-2-2023_15:49:23:694311,paved,cons-acc-40,0.1923235596824996,-0.7573917282495052,-0.47335382500575585,0.007231155267541714,0.03344312973191835,-0.00045205641719974366,0.5000017320315661,0.2857144491659182,0.6250002753390483,0
242,28-2-2023_15:49:23:750304,paved,cons-acc-40,0.17154865229044922,-0.7684613437573875,-0.3830145151268429,-0.021416569805266787,-9.396091183569433e-05,-0.0061166624881898715,0.5000017320315661,0.2857144491659182,0.6250002753390483,0
243,28-2-2023_15:49:23:798298,paved,cons-acc-40,0.8179507037879369,-0.949478934376951,-0.08053051327535382,-0.01456729995313346,-0.009697680204762499,0.004722786579561656,0.8750015887053876,0.4285714830553062,0.375000275519539,0
244,28-2-2023_15:49:23:846293,paved,cons-acc-40,0.8795310395617403,-1.0992655094567123,-0.22602449748429618,0.007321253163417033,0.03247848143707833,0.004113465848560912,0.8750015887053876,0.4285714830553062,0.375000275519539,0
245,28-2-2023_15:49:23:902284,paved,cons-acc-40,0.47501727967925644,-1.0166400161587437,0.12940239532327638,0.015270807842699434,0.019619250161253213,0.007271029087315906,0.6250001433261806,0.4285714830553062,0.6250002753390483,0
246,28-2-2023_15:49:23:950279,paved,cons-acc-40,0.9237468379159196,-1.6051156876467338,1.3194480957873165,0.028303839421109853,0.00478448596626075,-0.00016294084103567023,0.6250001433261806,0.4285714830553062,0.6250002753390483,0
247,28-2-2023_15:49:24:6295,paved,cons-acc-40,0.6775102298687536,-2.16699637384478,1.4539692589716946,0.018052948453954068,-0.010606296903321068,-0.000534213577828872,0.6250001433261806,0.5714287076382653,0.49999944950239295,0
248,28-2-2023_15:49:24:62261,paved,cons-acc-40,-0.10491207639080835,-2.1239772591003505,1.4003388512391461,0.02974124938421463,0.012415401742928014,0.013497147397440094,0.6250001433261806,0.5714287076382653,0.49999944950239295,0
249,28-2-2023_15:49:24:110322,paved,cons-acc-40,0.23014952834640734,-1.6595654678325362,1.189274217705929,0.029350682826195067,0.020691407701796685,0.02457592194262796,0.5000017320315661,0.5714287076382653,0.49999944950239295,0
250,28-2-2023_15:49:24:164728,paved,cons-acc-40,-0.44427675273069256,-1.23137536029735,1.2332526215052932,-0.04066070742527952,0.028111536073180617,0.01095265770852327,0.5000017320315661,0.5714287076382653,0.49999944950239295,0
251,28-2-2023_15:49:24:215324,paved,cons-acc-40,-0.8930793002607598,-0.9095364723786568,0.7176611497238621,-0.061213224913242506,-0.011830235661482804,-0.0026434088520389497,0.3749998551591448,0.5714287076382653,0.375000275519539,0
252,28-2-2023_15:49:24:263319,paved,cons-acc-40,-1.4898022470470984,-1.0377634616788485,-0.47410791435124566,-0.04236753098755339,-0.0006808624395391993,0.00022594381573776915,0.3749998551591448,0.5714287076382653,0.375000275519539,0
253,28-2-2023_15:49:24:319320,paved,cons-acc-40,-1.8804863976024273,-0.6471479548272987,0.037137816139084845,-0.052733550786602565,-0.04077238406510215,0.001365779997692214,0.5000017320315661,0.7142857415276529,0.49999944950239295,0
254,28-2-2023_15:49:24:367307,paved,cons-acc-40,-2.5827584815706865,0.1608116851140401,2.5007211333439825,-0.0336784045570552,-0.03777221036654037,0.00033268758682516953,0.5000017320315661,0.7142857415276529,0.49999944950239295,0
255,28-2-2023_15:49:24:423242,paved,cons-acc-40,-1.0405656386666233,0.19442344100628509,1.337254285202004,0.002613441278179765,0.035670867117432586,0.0015785499904502843,0.3749998551591448,0.7142857415276529,0.49999944950239295,0
256,28-2-2023_15:49:24:471236,paved,cons-acc-40,-0.2931343367913526,1.0470612656843874,1.1057462447730315,0.016644538666583823,0.05249282375261423,0.00836681368844799,0.3749998551591448,0.7142857415276529,0.49999944950239295,0
257,28-2-2023_15:49:24:522330,paved,cons-acc-40,-0.4014921459989711,-0.07612682542492277,1.6364068552279263,0.0079790382207101,0.013470290419438355,0.012591236785109726,0.7500008660157841,0.2857144491659182,0.49999944950239295,0
258,28-2-2023_15:49:24:578318,paved,cons-acc-40,-0.9222976000710214,0.10498398150059682,0.9930831619997585,-0.04808267979883667,0.03878457435608801,0.0035688373925522945,0.7500008660157841,0.2857144491659182,0.49999944950239295,0
259,28-2-2023_15:49:24:626310,paved,cons-acc-40,-0.7015895929044975,0.29902084208647406,-0.5675529891006933,-0.08942597761661943,-0.01634677358150661,0.000718082912667603,0.25000028816703573,0.7142857415276529,0.7500000001804906,0
260,28-2-2023_15:49:24:684646,paved,cons-acc-40,-1.102770038400653,0.19556670805496154,0.43686007493053725,-0.0478384619201018,-0.022573269301502205,0.005600770975011532,0.25000028816703573,0.7142857415276529,0.7500000001804906,0
261,28-2-2023_15:49:24:737971,paved,cons-acc-40,-0.7447668392274203,0.8521389222869633,0.6450795424166631,-0.0405899240502499,-0.027386682192998023,-0.00585496989513701,0.7500008660157841,0.2857144491659182,0.49999944950239295,0
262,28-2-2023_15:49:24:785998,paved,cons-acc-40,-1.1859874546388607,1.090397387936776,0.4207427998977131,-0.009001922105872084,0.04942961658217649,0.012242482023026236,0.7500008660157841,0.2857144491659182,0.49999944950239295,0
263,28-2-2023_15:49:24:833983,paved,cons-acc-40,-0.9507788551747675,0.5242172393823613,0.3220186233819972,-0.00984829151921287,0.004589654541950115,0.02114674768117558,0.5000017320315661,0.2857144491659182,0.375000275519539,0
264,28-2-2023_15:49:24:889991,paved,cons-acc-40,-0.7622074934229721,0.4949153863138054,-0.043423651279019704,-0.04876555021063751,0.02945634797317797,0.0018391824265417064,0.5000017320315661,0.2857144491659182,0.375000275519539,0
265,28-2-2023_15:49:24:945965,paved,cons-acc-40,-0.4540369793762647,-1.1786193431974776,-1.0138914617778227,-0.09217398419383788,-0.00020731560886277922,0.0015532460932673273,0.6250001433261806,0.7142857415276529,0.6250002753390483,0
266,28-2-2023_15:49:24:993956,paved,cons-acc-40,-0.5598459009110655,-0.3565326451516342,-1.0719854765577974,-0.09639706814153458,0.008135597643419942,0.010127815383943905,0.6250001433261806,0.7142857415276529,0.6250002753390483,0
267,28-2-2023_15:49:25:49946,paved,cons-acc-40,-0.5084678986491398,-0.1840408628185128,-1.4995426872087527,-0.09992361796397387,0.02569811790315176,-0.0011507133376643403,0.3749998551591448,0.7142857415276529,0.49999944950239295,0
268,28-2-2023_15:49:25:97988,paved,cons-acc-40,-0.8332362783197025,0.9226918364899126,0.1941175784966951,-0.06638697572685978,-0.03042173364192017,0.0010807557338094304,0.3749998551591448,0.7142857415276529,0.49999944950239295,0
269,28-2-2023_15:49:25:145983,paved,cons-acc-40,-0.11991047535167954,0.2444810107566504,-0.6227308756857641,-0.08014974516200417,-0.013908411326326094,-0.002948047365733318,0.6250001433261806,0.7142857415276529,0.375000275519539,0
270,28-2-2023_15:49:25:201928,paved,cons-acc-40,-0.2285291606805005,0.25052731815016976,-1.6968680544251609,-0.03582298693449502,-0.010549221796679803,0.005255250927587921,0.6250001433261806,0.7142857415276529,0.375000275519539,0
271,28-2-2023_15:49:25:257930,paved,cons-acc-40,-0.17902094232281024,-0.09260832455496587,-0.1606448421495299,0.04273480486718809,0.034189693081043776,0.01260876578534543,0.7500008660157841,0.4285714830553062,0.49999944950239295,0
272,28-2-2023_15:49:25:305925,paved,cons-acc-40,-0.22940489290283023,1.4385045995163626,1.1099488268721782,0.07560959011656546,0.04672195590461819,0.009591002842767558,0.7500008660157841,0.4285714830553062,0.49999944950239295,0
273,28-2-2023_15:49:25:353914,paved,cons-acc-40,0.009490409350817797,1.8875836120741722,2.078987285910477,0.05802208112014915,0.015569238204085602,0.00273897916813528,0.5000017320315661,0.5714287076382653,0.49999944950239295,0
274,28-2-2023_15:49:25:406795,paved,cons-acc-40,-0.43727688067352993,1.6584566432126904,2.0405240961412927,0.016243476799071427,0.010212747922824783,0.0013243486673392853,0.5000017320315661,0.5714287076382653,0.49999944950239295,0
275,28-2-2023_15:49:25:462804,paved,cons-acc-40,-0.4365182736255684,1.0029698511431602,0.27168388916974084,-0.031697776477022495,-0.025140951459931768,-0.0009198609468116623,0.7500008660157841,0.7142857415276529,0.375000275519539,0
276,28-2-2023_15:49:25:510811,paved,cons-acc-40,-0.28858415108100177,0.7054700301880252,-0.9820618580005067,-0.07421908350320414,-0.038109114555593133,-0.00202686321779282,0.7500008660157841,0.7142857415276529,0.375000275519539,0
277,28-2-2023_15:49:25:566805,paved,cons-acc-40,-0.5555084686605779,0.856329855790279,-0.8149215775735166,-0.05738951624737098,-0.01757138837958586,0.011580661667114427,0.6250001433261806,0.5714287076382653,0.375000275519539,0
278,28-2-2023_15:49:25:614811,paved,cons-acc-40,-0.2908475233376646,1.0048319663526195,-0.3942611696353447,-0.029579231200276463,-0.03347757082151767,0.00358361090762762,0.6250001433261806,0.5714287076382653,0.375000275519539,0
279,28-2-2023_15:49:25:670784,paved,cons-acc-40,-0.26856597594155884,0.2017150973274644,-0.037047326325039764,-0.023334952715786367,-0.002719288106593769,-0.0029928949231794776,0.6250001433261806,0.5714287076382653,0.49999944950239295,0
280,28-2-2023_15:49:25:718775,paved,cons-acc-40,-0.22168868229986352,0.10506884540400256,0.523207845949692,-0.002002325063219259,-0.0015546223936878302,0.004886302531339401,0.6250001433261806,0.5714287076382653,0.49999944950239295,0
281,28-2-2023_15:49:25:774771,paved,cons-acc-40,-0.38920286781514896,-0.8498054810392215,1.6683001759619207,0.03718971145179617,0.028045706197152354,0.010715462347213614,0.6250001433261806,0.7142857415276529,0.6250002753390483,0
282,28-2-2023_15:49:25:822764,paved,cons-acc-40,-0.4205519609498472,-1.1428997028779926,2.301828222264228,-0.020078759002987577,-0.0024110621536683786,-0.0009535129190730088,0.6250001433261806,0.7142857415276529,0.6250002753390483,0
283,28-2-2023_15:49:25:878753,paved,cons-acc-40,-0.6881973096690377,-0.2662993626036656,2.042646409675506,-0.013053117514274192,-0.02353218445903471,0.0016777794544405025,0.8750015887053876,0.5714287076382653,0.375000275519539,0
284,28-2-2023_15:49:25:926741,paved,cons-acc-40,-0.16120744171598045,0.43512464259750394,-0.17623695219089797,-0.006276761831704084,-0.022173613579210428,-0.0006243086274874896,0.8750015887053876,0.5714287076382653,0.375000275519539,0
285,28-2-2023_15:49:25:982736,paved,cons-acc-40,0.6638201024381502,0.8581154829912967,0.261419051256881,0.02497864641822108,-0.026228299974229603,0.011343521928486928,0.5000017320315661,0.2857144491659182,0.7500000001804906,0
286,28-2-2023_15:49:26:30728,paved,cons-acc-40,0.7064538886901574,0.4315877019730307,0.582172590843784,-0.012091418939174304,0.009045891297102995,0.0035040324214872624,0.5000017320315661,0.2857144491659182,0.7500000001804906,0
287,28-2-2023_15:49:26:86722,paved,cons-acc-40,0.3918915048801063,0.24658321472777453,1.1404034575355109,-0.033596369586180265,0.005459077051340061,0.004412278019742324,0.6250001433261806,0.4285714830553062,0.49999944950239295,0
288,28-2-2023_15:49:26:134722,paved,cons-acc-40,-0.15075507827134177,-0.6444444124103043,1.2675603641522308,-0.03456027017657465,-0.004625407895348926,0.0033014626436128625,0.6250001433261806,0.4285714830553062,0.49999944950239295,0
289,28-2-2023_15:49:26:190712,paved,cons-acc-40,-0.4317391184347621,-0.5349117101957872,0.9126430967117416,-0.03541232988582662,-0.0027597019501758215,0.002220902048638832,0.3749998551591448,0.5714287076382653,0.49999944950239295,0
290,28-2-2023_15:49:26:238704,paved,cons-acc-40,-0.6571820758314844,-2.1532273519275176,-0.669037119943249,-0.012933166316554466,0.02625461724791882,0.004866436364704746,0.3749998551591448,0.5714287076382653,0.49999944950239295,0
291,28-2-2023_15:49:26:294718,paved,cons-acc-40,-1.1277034493445584,-1.6760226703224683,-0.8099763141240235,-0.0336867723033101,0.007724310439116151,0.012655238124914458,0.7500008660157841,0.2857144491659182,0.6250002753390483,0
292,28-2-2023_15:49:26:342691,paved,cons-acc-40,-1.270951578001663,-1.1761288889923067,-3.179398170119765,-0.05192534667033975,0.04780650647288186,0.004475061270457726,0.7500008660157841,0.2857144491659182,0.6250002753390483,0
293,28-2-2023_15:49:26:398732,paved,cons-acc-40,-1.1739781251806944,-1.8414669104135981,-1.7140841228729615,-0.054004690890321956,0.07245835167959204,0.012700851210733654,0.6250001433261806,0.5714287076382653,0.49999944950239295,0
294,28-2-2023_15:49:26:446681,paved,cons-acc-40,-0.7408730891681681,-1.299691449538939,0.9751094225575707,-0.03860220017722559,0.06935953514143695,0.009621904533013143,0.6250001433261806,0.5714287076382653,0.49999944950239295,0
295,28-2-2023_15:49:26:502105,paved,cons-acc-40,-2.045537287028485,-1.315160429692144,3.1234970209762505,0.023781781401848723,0.007684423566705199,0.012481567654754225,0.5000017320315661,0.5714287076382653,0.7500000001804906,0
296,28-2-2023_15:49:26:550152,paved,cons-acc-40,-0.4779483158758566,-1.4991280788386128,1.3513346263905992,-0.05437200037162379,0.029242495314961977,-6.951142618160169e-06,0.5000017320315661,0.5714287076382653,0.7500000001804906,0
297,28-2-2023_15:49:26:607163,paved,cons-acc-40,-0.7392121255944046,0.7604996126269898,1.0099791348265441,-0.06472441855093679,-0.024062688539179835,0.0108428952613442,0.3749998551591448,0.4285714830553062,0.6250002753390483,0
298,28-2-2023_15:49:26:655228,paved,cons-acc-40,0.34969183516707836,0.9311048653695007,1.1390926695168642,-0.06318144943701662,-0.04496471744020574,-0.010112120132841905,0.3749998551591448,0.4285714830553062,0.6250002753390483,0
299,28-2-2023_15:49:26:711161,paved,cons-acc-40,0.22178592915879705,-0.33378809243919827,1.8148133221536316,-0.021331194846960014,-0.0725302586812541,-0.00882750341237958,1.0,0.5714287076382653,0.375000275519539,0
300,28-2-2023_15:49:26:759166,paved,cons-acc-40,-0.03319433216352621,-0.6390743098189416,-0.1976247543960452,-0.007135912781350125,-0.025813083009129864,-0.00875031504881735,1.0,0.5714287076382653,0.375000275519539,0
301,28-2-2023_15:49:26:807205,paved,cons-acc-40,-0.904764782180309,-1.2604098442286793,3.4148105984246664,0.05323418247303981,0.03921445978990211,0.002600349926624083,0.7500008660157841,0.4285714830553062,0.6250002753390483,0
302,28-2-2023_15:49:26:863151,paved,cons-acc-40,0.7587308709044215,-1.3266956540633472,2.9925452355367,0.01939726169330267,-0.02074211299272191,-0.012524224731869297,0.7500008660157841,0.4285714830553062,0.6250002753390483,0
303,28-2-2023_15:49:26:919136,paved,cons-acc-40,1.5900892885353017,0.16596151856457642,0.7891113653862214,-0.021111566382523678,0.02724683606218458,-0.025385443749973466,0.5000017320315661,0.4285714830553062,0.6250002753390483,0
304,28-2-2023_15:49:26:967132,paved,cons-acc-40,1.2331077964817247,-0.2660954989895719,3.066292407690585,-0.015191441412483873,0.0008371455390478802,-0.004928448112487504,0.5000017320315661,0.4285714830553062,0.6250002753390483,0
305,28-2-2023_15:49:27:23219,paved,cons-acc-40,1.1461858143154255,0.8234828815597814,1.0231605521773548,0.013260149973970313,0.032970163903090245,0.004413725979912339,0.3749998551591448,0.5714287076382653,0.24999944896091997,0
306,28-2-2023_15:49:27:71225,paved,cons-acc-40,0.5114455674348927,0.28842668678718686,-1.4589013565516318,-0.03049120329508693,0.05335711634139686,-0.007845864533449808,0.3749998551591448,0.5714287076382653,0.24999944896091997,0
307,28-2-2023_15:49:27:127228,paved,cons-acc-40,0.05379756594220686,-1.3233916855092205,-0.881388115688793,-0.017488717893529574,0.014124584586824557,-0.00541276202011399,0.5000017320315661,0.2857144491659182,0.49999944950239295,0
308,28-2-2023_15:49:27:175229,paved,cons-acc-40,0.2973043590332213,-2.0980266632177784,0.8392825512320121,0.006561344028472249,0.06853495373931745,0.0037203537647601363,0.5000017320315661,0.2857144491659182,0.49999944950239295,0
309,28-2-2023_15:49:27:231248,paved,cons-acc-40,-0.09831940253413102,-1.5380075177407653,2.0353876074883397,-0.030841935720892832,0.008899632692130767,-0.0025931086383730135,0.5000017320315661,0.5714287076382653,0.6250002753390483,0
310,28-2-2023_15:49:27:279207,paved,cons-acc-40,-0.688499016791285,-0.6922060127474481,0.6060553090526066,-0.040174516161481995,0.015523270786726976,-0.0015266697072978336,0.5000017320315661,0.5714287076382653,0.6250002753390483,0
311,28-2-2023_15:49:27:335208,paved,cons-acc-40,-0.7318955366545493,-1.2234425569358263,3.2277524646622733,-0.030176994168618104,0.017447009241622406,0.008209521962126539,0.3749998551591448,0.7142857415276529,0.49999944950239295,0
312,28-2-2023_15:49:27:383234,paved,cons-acc-40,-0.0781123174012529,-1.5102215070494962,0.6592682101967791,-0.05224009944957715,0.01410552496694874,-0.004448686855065248,0.3749998551591448,0.7142857415276529,0.49999944950239295,0
313,28-2-2023_15:49:27:439179,paved,cons-acc-40,0.45630765466587264,-1.2701098095190273,-1.7750436628466106,-0.08986147052465243,-0.005838182530091022,-0.013828018862071776,0.7500008660157841,0.4285714830553062,0.49999944950239295,0
314,28-2-2023_15:49:27:487188,paved,cons-acc-40,-0.10468382516177888,-2.0970180215202867,-0.9170955118004384,-0.013848457458080318,0.03945900829191462,-0.004942941171072147,0.7500008660157841,0.4285714830553062,0.49999944950239295,0
315,28-2-2023_15:49:27:543174,paved,cons-acc-40,0.7430990276928805,-1.2280164568074874,2.1730239565335667,-0.06323589734606515,0.027744601809137154,-0.013463030992253306,0.5000017320315661,0.5714287076382653,0.49999944950239295,0
316,28-2-2023_15:49:27:591160,paved,cons-acc-40,0.41307234578172286,-1.1692547898420358,2.0363581827271737,-0.07137024297021934,-0.004882345796654988,-0.002697068174961431,0.5000017320315661,0.5714287076382653,0.49999944950239295,0
317,28-2-2023_15:49:27:647158,paved,cons-acc-40,0.3248577247209838,-0.9404762554831411,-0.3142781479874657,-0.06261221049249956,-0.02342689740644977,-0.008462579098923824,0.7500008660157841,0.7142857415276529,0.24999944896091997,0
318,28-2-2023_15:49:27:695154,paved,cons-acc-40,0.37512406635420137,-0.9543528755479714,-0.41388634807629965,-0.045346071411432175,0.01057937136889298,-0.003673274445098315,0.7500008660157841,0.7142857415276529,0.24999944896091997,0
319,28-2-2023_15:49:27:751152,paved,cons-acc-40,-0.4471566977297111,-1.7937572857245168,-0.5345356815462238,-0.04737202814929587,0.03435153179434652,0.0025345915581746637,0.6250001433261806,0.7142857415276529,0.24999944896091997,0
320,28-2-2023_15:49:27:799135,paved,cons-acc-40,-1.2315192196898055,-0.6869459572411398,3.9101839104956024,-0.033938769848780914,0.019631778823766446,0.005679500376887629,0.6250001433261806,0.7142857415276529,0.24999944896091997,0
321,28-2-2023_15:49:27:855134,paved,cons-acc-40,-1.0067182083517086,-1.3303850718160202,2.9279750157826276,-0.02835008878415724,-0.01915648451235108,-0.008659745750268058,0.8750015887053876,0.5714287076382653,0.49999944950239295,0
322,28-2-2023_15:49:27:903149,paved,cons-acc-40,-0.9885269169897141,-1.5787747337040108,2.8365511328813504,-0.0117431004394919,0.01366348581846824,-0.004624185451192618,0.8750015887053876,0.5714287076382653,0.49999944950239295,0
323,28-2-2023_15:49:27:959158,paved,cons-acc-40,-0.5950281584720516,-1.906300638570516,3.1452061677435195,0.07992195192181803,-0.04512265552739739,0.0029232855546503095,0.6250001433261806,0.7142857415276529,0.6250002753390483,0
324,28-2-2023_15:49:28:7106,paved,cons-acc-40,-0.2209966837041316,-0.9896627164563438,3.55195692355845,0.09155416752398482,-0.016602796862970646,-0.007107369276442293,0.6250001433261806,0.7142857415276529,0.6250002753390483,0
325,28-2-2023_15:49:28:63101,paved,cons-acc-40,0.22661472346492106,-0.510737335238671,1.5990290388874742,0.06947556724916043,0.002964690552876608,0.0013821905750140504,0.6250001433261806,0.5714287076382653,0.49999944950239295,0
326,28-2-2023_15:49:28:111110,paved,cons-acc-40,0.1527031872032503,-0.37897364514933396,0.39133072509630207,0.019027809418135623,0.017562027811669993,-0.010809618489900077,0.6250001433261806,0.5714287076382653,0.49999944950239295,0
327,28-2-2023_15:49:28:160167,paved,cons-acc-40,0.5874708513164759,-1.199627040880359,0.4744766405461237,0.02644342903412869,0.0041985026238906455,-0.01578564772624671,0.3749998551591448,0.4285714830553062,0.8750002758805213,0
328,28-2-2023_15:49:28:216232,paved,cons-acc-40,0.4569375796443303,-1.4879396155176847,-0.4483786863487387,-0.0007848656442495765,0.0008142760212668711,-0.002591730216871733,0.3749998551591448,0.4285714830553062,0.8750002758805213,0
329,28-2-2023_15:49:28:272214,paved,cons-acc-40,-0.293358768026221,-1.7917351870256362,1.5520979692024577,-0.03465158877450862,0.02689107299458468,0.0021897349805858344,0.6250001433261806,0.5714287076382653,0.6250002753390483,0
330,28-2-2023_15:49:28:320165,paved,cons-acc-40,-0.5009960264420077,-1.8502545766089877,0.7679194651265338,-0.030927146994905126,0.019256027529711457,0.006802419827241133,0.6250001433261806,0.5714287076382653,0.6250002753390483,0
331,28-2-2023_15:49:28:368157,paved,cons-acc-40,0.14284637227056707,-1.8200564431616124,-1.3966029619582234,-0.06584475203930774,-0.039192739698434245,0.0003876022113309188,0.7500008660157841,0.5714287076382653,0.375000275519539,0
332,28-2-2023_15:49:28:424612,paved,cons-acc-40,-0.1305950668544994,-1.9923398510607766,-2.4650738373571004,-0.09333833318343379,-0.010043236299696005,-0.0001725150454730893,0.7500008660157841,0.5714287076382653,0.375000275519539,0
333,28-2-2023_15:49:28:480546,paved,cons-acc-40,0.67778137038559,-2.196238866665268,-1.7281386319961234,-0.022371680961994253,-0.03965358908305114,0.013618524868000925,0.8750015887053876,0.5714287076382653,0.375000275519539,0
334,28-2-2023_15:49:28:528554,paved,cons-acc-40,0.46575570451068415,-1.6669884610347898,-2.313472710484956,-0.09342841844264578,0.0019291291101332791,-0.0012179589757504595,0.8750015887053876,0.5714287076382653,0.375000275519539,0
335,28-2-2023_15:49:28:576592,paved,cons-acc-40,0.44004092558295393,-3.0922410274714087,-2.5702550419674837,-0.10564948392635566,-0.06510961875596946,-0.009735724772753892,0.3749998551591448,0.5714287076382653,0.49999944950239295,0
336,28-2-2023_15:49:28:632559,paved,cons-acc-40,-1.3173781183586768,-2.400359832829818,2.500641688113032,-0.017125299655297632,-0.0745234780084294,-0.009762889884980136,0.3749998551591448,0.5714287076382653,0.49999944950239295,0
337,28-2-2023_15:49:28:686302,paved,cons-acc-40,-0.3972168872360482,-1.2262624888505556,0.5851202125362029,-0.03756451730486067,-0.10900464064633349,-0.02056592031527156,0.0,0.8571427751667867,0.49999944950239295,0
338,28-2-2023_15:49:28:738605,paved,cons-acc-40,-0.5669042842744616,-2.556838659800258,-0.5179446263181084,-0.08260876437967372,0.006169334431652657,-0.0031341807573973604,0.0,0.8571427751667867,0.49999944950239295,0
339,28-2-2023_15:49:28:786598,paved,cons-acc-40,-0.9105830681481717,-3.247045702910984,0.8300733582398112,-0.09223422349663637,-0.028816328578943715,0.009970420293662614,0.25000028816703573,0.7142857415276529,0.375000275519539,0
340,28-2-2023_15:49:28:842541,paved,cons-acc-40,0.4311556352611581,-0.3231788106124003,0.6206826670065261,-0.06300859611432041,0.03153623917819278,0.002512404071619347,0.25000028816703573,0.7142857415276529,0.375000275519539,0
341,28-2-2023_15:49:28:890585,paved,cons-acc-40,0.5772652579193749,-1.1874642761417835,3.7410257066838053,0.021342062814624516,-0.057284731270454074,-0.010253396270034942,0.7500008660157841,0.2857144491659182,0.24999944896091997,0
342,28-2-2023_15:49:28:947621,paved,cons-acc-40,-0.42160975764856157,-2.1741640271004417,1.317296715350258,-0.07881380871511459,-0.04096241793216095,-0.003566433087487983,0.7500008660157841,0.2857144491659182,0.24999944896091997,0
343,28-2-2023_15:49:28:995661,paved,cons-acc-40,-0.15366874810980247,-1.5859046068462246,0.07902983208307579,-0.09552707908139746,0.002966716766646095,-0.007869570854150618,0.5000017320315661,0.5714287076382653,0.49999944950239295,0
344,28-2-2023_15:49:29:43655,paved,cons-acc-40,1.2938087633574513,-1.794299513233413,-0.584811750885237,-0.08176581847682429,0.024308001931749878,-0.0068363117683179625,0.5000017320315661,0.5714287076382653,0.49999944950239295,0
345,28-2-2023_15:49:29:99588,paved,cons-acc-40,1.8724465338305538,-1.021874434937031,-1.1521162977794281,-0.06686180406415916,0.03146172012848043,-0.0006502472837650883,0.5000017320315661,0.5714287076382653,0.6250002753390483,0
346,28-2-2023_15:49:29:147591,paved,cons-acc-40,-0.03726328749150931,-0.5102427697867924,1.732556996769837,-0.043463659334764704,0.09917723874874777,0.006557186200226137,0.5000017320315661,0.5714287076382653,0.6250002753390483,0
347,28-2-2023_15:49:29:203630,paved,cons-acc-40,0.054023019344033835,0.5272081832143509,-0.28438704059843545,0.02203613074671358,0.09770971883478186,-0.0019950334024620847,0.6250001433261806,0.5714287076382653,0.49999944950239295,0
348,28-2-2023_15:49:29:259575,paved,cons-acc-40,0.04746556344307425,0.6642033781845846,-0.508662126909744,-0.018095033339379854,0.005436310324974339,-0.0004412232647341256,0.6250001433261806,0.5714287076382653,0.49999944950239295,0
349,28-2-2023_15:49:29:307569,paved,cons-acc-40,-0.5434104014207427,1.1158795801097658,0.055505774330007696,-0.009344581407849125,-0.025543967769326884,-0.002220142352030576,0.3749998551591448,0.5714287076382653,0.375000275519539,0
350,28-2-2023_15:49:29:355605,paved,cons-acc-40,-0.9141787595540654,-0.39926515930261397,3.367037330199836,0.030130837448191443,0.0484192403081643,0.0219558109622722,0.3749998551591448,0.5714287076382653,0.375000275519539,0
351,28-2-2023_15:49:29:411550,paved,cons-acc-40,-1.4012835392453553,-0.7176984861543766,2.6037435342769295,0.0338100953598037,0.10303663930059814,0.009719505187709093,0.6250001433261806,0.4285714830553062,0.6250002753390483,0
352,28-2-2023_15:49:29:467590,paved,cons-acc-40,-1.177379026288071,-1.322599462483469,2.91973058499314,0.047454799901848824,0.005029460371829067,0.0066749929457623515,0.6250001433261806,0.4285714830553062,0.6250002753390483,0
353,28-2-2023_15:49:29:515594,paved,cons-acc-40,-0.5700670588251443,-2.305809292678588,1.7730366729910467,0.0014647927213422146,0.006515260978629147,-9.057852439225793e-06,0.7500008660157841,0.4285714830553062,0.6250002753390483,0
354,28-2-2023_15:49:29:571539,paved,cons-acc-40,-0.6626989706679328,-2.1129003203086194,1.1958017216549124,0.012301925978362325,0.01144467283985117,-0.005614104033160332,0.7500008660157841,0.4285714830553062,0.6250002753390483,0
355,28-2-2023_15:49:29:619583,paved,cons-acc-40,0.006394926801202017,-2.365455449736687,-0.4960025824953864,-0.019242375812338335,-0.017437950160737074,-0.00165569775008552,0.7500008660157841,0.2857144491659182,0.375000275519539,0
356,28-2-2023_15:49:29:670597,paved,cons-acc-40,-0.8015001416739127,-1.5374224683460513,1.0231774241074718,0.019359925419559283,0.016317432298839706,0.007812324586500664,0.7500008660157841,0.2857144491659182,0.375000275519539,0
357,28-2-2023_15:49:29:726610,paved,cons-acc-40,-0.09879140070256387,-0.6507821601366005,-0.040770239882722326,0.00036580213848559986,0.02212271954572773,0.000903451665151672,0.5000017320315661,0.4285714830553062,0.6250002753390483,0
358,28-2-2023_15:49:29:774645,paved,cons-acc-40,0.6060008122997533,-0.8263822723724121,-0.024217479008754924,0.0003908010432897337,0.0460055243872292,0.005839925651452622,0.5000017320315661,0.4285714830553062,0.6250002753390483,0
359,28-2-2023_15:49:29:830628,paved,cons-acc-40,0.10390018564456893,-0.9788486780455055,2.0582404548660196,-0.01802062182167798,0.06623291315665397,0.011566323631374543,0.3749998551591448,0.2857144491659182,0.6250002753390483,0
360,28-2-2023_15:49:29:878591,paved,cons-acc-40,0.8338281758825677,-0.8917075613414941,0.6595474077388328,0.013613426186769171,0.0574640179346925,0.0016323570087971896,0.3749998551591448,0.2857144491659182,0.6250002753390483,0
361,28-2-2023_15:49:29:934592,paved,cons-acc-40,0.005521000684378663,-0.7512126415545206,2.0843394231456145,0.02307511717572843,0.04311785462787521,0.006084529040672185,0.5000017320315661,0.7142857415276529,0.375000275519539,0
362,28-2-2023_15:49:29:982568,paved,cons-acc-40,-0.10659993041604572,-0.8716312850932768,0.08103585673461478,-0.005661483519930503,0.026725882157790707,0.0012083908977464416,0.5000017320315661,0.7142857415276529,0.375000275519539,0
363,28-2-2023_15:49:30:30566,paved,cons-acc-40,-0.479275333970259,-0.870314038387832,-0.4878693862162149,-0.0851595514457987,0.05342746711913234,-0.003613013258155164,0.5000017320315661,0.5714287076382653,0.49999944950239295,0
364,28-2-2023_15:49:30:86553,paved,cons-acc-40,-0.4965163453951237,-0.3202393905741978,1.4875018321050293,-0.060550440666605865,0.02291918834513762,0.004324306871643835,0.5000017320315661,0.5714287076382653,0.49999944950239295,0
365,28-2-2023_15:49:30:142564,paved,cons-acc-40,0.1586473464961744,0.9481469633952404,0.7152506104035441,-0.000439463624006195,0.01712456990737693,0.006280086495824917,0.3749998551591448,0.4285714830553062,0.49999944950239295,0
366,28-2-2023_15:49:30:190552,paved,cons-acc-40,0.017734163258038393,0.30573763907476426,0.39108924556174446,-0.030928726299556446,-0.021087942647671873,0.0005662181193822188,0.3749998551591448,0.4285714830553062,0.49999944950239295,0
367,28-2-2023_15:49:30:246593,paved,cons-acc-40,-0.620885138096489,0.3168526996150773,2.3608921118167236,0.01830646282265712,-0.016049480862301402,0.011389135922848861,0.5000017320315661,0.7142857415276529,0.6250002753390483,0
368,28-2-2023_15:49:30:294528,paved,cons-acc-40,0.6848323032621508,0.2674929384058157,0.1891127168884621,0.03993552434196697,0.0072147882608665365,-0.0016121905469311595,0.5000017320315661,0.7142857415276529,0.6250002753390483,0
369,28-2-2023_15:49:30:342529,paved,cons-acc-40,-0.3179784302533899,0.21545744940219913,-0.5400280263621643,-0.006734567376117169,-0.008534418430207486,-0.0004896995680146576,0.25000028816703573,0.5714287076382653,0.6250002753390483,0
370,28-2-2023_15:49:30:398575,paved,cons-acc-40,-0.38276999645808063,0.7960385417025893,1.0415985084018815,-0.046679643844826244,-0.059167185864727495,0.002895126737466527,0.25000028816703573,0.5714287076382653,0.6250002753390483,0
371,28-2-2023_15:49:30:454567,paved,cons-acc-40,0.37215515313194947,0.061710136667776916,-0.2993537305158147,-0.06784607944461638,-0.04030388005919158,-0.018441587740274188,0.5000017320315661,0.5714287076382653,0.49999944950239295,0
372,28-2-2023_15:49:30:502503,paved,cons-acc-40,0.4578782917631783,0.3520669409229573,-0.7353515723000378,-0.0269862986310302,-0.010113554750548912,-0.004367754039188078,0.5000017320315661,0.5714287076382653,0.49999944950239295,0
373,28-2-2023_15:49:30:558499,paved,cons-acc-40,-0.11004861849446668,0.3005744061783157,0.13048481896662234,-0.03803034700981083,-0.0074709165234219214,-0.005838134198066801,0.5000017320315661,0.4285714830553062,0.6250002753390483,0
374,28-2-2023_15:49:30:606502,paved,cons-acc-40,0.4927451294894024,-0.2736761709063062,-0.6269556339915344,-0.019735229045871494,-0.04562388634402684,-0.01305563936014218,0.5000017320315661,0.4285714830553062,0.6250002753390483,0
375,28-2-2023_15:49:30:662491,paved,cons-acc-40,0.8297795081029566,0.4396470313812813,-0.555631484799171,-0.01420660497884432,-0.04376756522648831,-0.009992228137111727,0.5000017320315661,0.5714287076382653,0.24999944896091997,0
376,28-2-2023_15:49:30:710500,paved,cons-acc-40,0.10218129531449216,0.8106475808584723,-0.1861670749246877,0.022967522447243306,0.005816259040586094,-0.005248284325437237,0.5000017320315661,0.5714287076382653,0.24999944896091997,0
377,28-2-2023_15:49:30:766476,paved,cons-acc-40,-1.18325120743016,0.6554165057052368,4.311569956823556,0.02337775850639849,0.0015763191894530761,-0.007549213798760916,0.3749998551591448,0.5714287076382653,0.6250002753390483,0
378,28-2-2023_15:49:30:814514,paved,cons-acc-40,-0.8976782297116748,1.2267696985735377,4.655391023486261,-0.004480555605245889,0.017052756459801123,-0.014337634428104751,0.3749998551591448,0.5714287076382653,0.6250002753390483,0
379,28-2-2023_15:49:30:870461,paved,cons-acc-40,0.30833891241749734,0.7955682743643264,2.5935438459169453,0.011290841018525854,-0.020777017126591663,-0.006706499875068074,0.5000017320315661,0.5714287076382653,0.49999944950239295,0
380,28-2-2023_15:49:30:918458,paved,cons-acc-40,0.9282088039949166,-0.2037320489134158,-0.605287441206869,-0.020831957618917183,0.01779071210526738,-0.0089233029818045,0.5000017320315661,0.5714287076382653,0.49999944950239295,0
381,28-2-2023_15:49:30:974443,paved,cons-acc-40,1.5682603295876971,1.0104887697798492,-0.02809811564834197,-0.04381413381674332,0.0032706030971133056,0.0020114513433539087,0.5000017320315661,0.5714287076382653,0.375000275519539,0
382,28-2-2023_15:49:31:22436,paved,cons-acc-40,1.2442214153996891,0.9409196885850889,-2.7850770468411103,-0.07703622603687202,0.010929015671874702,0.0012571568493380749,0.5000017320315661,0.5714287076382653,0.375000275519539,0
383,28-2-2023_15:49:31:70431,paved,cons-acc-40,0.9612823589849862,0.9794899793677606,-1.2087348003842275,-0.09369073687525689,0.02840908344566866,-0.0025349527076259774,0.8750015887053876,0.4285714830553062,0.375000275519539,0
384,28-2-2023_15:49:31:126425,paved,cons-acc-40,1.65436904400649,-0.08987353002382548,-0.38938551932762966,-0.041807523610387476,0.04561334862365641,0.00999455774242763,0.8750015887053876,0.4285714830553062,0.375000275519539,0
385,28-2-2023_15:49:31:174422,paved,cons-acc-40,0.7406508036625707,-1.397150650155404,0.8776278624535543,0.010470227892765499,0.0239313796031427,-0.002611025917419147,0.7500008660157841,0.4285714830553062,0.49999944950239295,0
386,28-2-2023_15:49:31:230458,paved,cons-acc-40,-0.0821245493571181,-1.0143834002647358,-0.5139448975466117,-0.05017001976628481,0.04717485453945837,-0.0010018343968381958,0.7500008660157841,0.4285714830553062,0.49999944950239295,0
387,28-2-2023_15:49:31:286418,paved,cons-acc-40,-0.23543407400928001,-1.209068550351381,-0.958230380708531,-0.04242402579444893,0.050136031076016406,0.004669708798002721,0.3749998551591448,0.4285714830553062,0.49999944950239295,0
388,28-2-2023_15:49:31:334445,paved,cons-acc-40,-0.7188483885907617,-1.0997365573395026,1.0652520335910158,-0.004897221260933476,0.03469641984850154,-0.0024514768570984436,0.3749998551591448,0.4285714830553062,0.49999944950239295,0
389,28-2-2023_15:49:31:382439,paved,cons-acc-40,-1.4443684125432767,-1.0264247592973461,1.7464143363154747,-0.016472513530671633,0.042692070380155184,0.0008211995780295711,0.5000017320315661,0.4285714830553062,0.24999944896091997,0
390,28-2-2023_15:49:31:438388,paved,cons-acc-40,-0.8502968719395035,-2.078805084796809,0.6362818338524143,-0.007738741934013501,-0.09737388403110009,-0.002327351037247692,0.5000017320315661,0.4285714830553062,0.24999944896091997,0
391,28-2-2023_15:49:31:494382,paved,cons-acc-40,-0.6248312525609123,-2.3741558719854865,0.73355034088139,0.004824429284578043,-0.08602113187331786,-0.004268676679151513,0.6250001433261806,0.5714287076382653,0.7500000001804906,0
392,28-2-2023_15:49:31:542374,paved,cons-acc-40,-1.5612830898427905,-1.4106930331827776,1.4995558943437088,0.09284005384829717,-0.08050776062330253,0.004635129664370325,0.6250001433261806,0.5714287076382653,0.7500000001804906,0
393,28-2-2023_15:49:31:598362,paved,cons-acc-40,-2.033818470125418,-1.2380906791260087,2.0649314288582987,0.1442897644023789,-0.07426962424642945,0.011515921217572396,0.3749998551591448,0.5714287076382653,0.375000275519539,0
394,28-2-2023_15:49:31:651644,paved,cons-acc-40,-1.1143518908922176,-1.3275110695290617,3.3536600371229737,0.12329180946405074,-0.10671931338437446,-0.016787291574644602,0.3749998551591448,0.5714287076382653,0.375000275519539,0
395,28-2-2023_15:49:31:697406,paved,cons-acc-40,-0.056992339604702735,-1.1696884692517469,2.588442260542248,0.03328308721302571,-0.0638172757319842,-0.015137367125061975,0.3749998551591448,0.2857144491659182,0.49999944950239295,0
396,28-2-2023_15:49:31:753388,paved,cons-acc-40,0.5921515763852859,-0.2937311874878963,0.7807465529180977,-0.052396720699631014,-0.09057523748487985,-0.02608540985236659,0.3749998551591448,0.2857144491659182,0.49999944950239295,0
397,28-2-2023_15:49:31:801385,paved,cons-acc-40,0.466462373568604,0.36938633843738766,-3.108907068818263,-0.26706389782943113,0.06773443644837997,-0.014895558787404567,0.7500008660157841,0.7142857415276529,0.49999944950239295,0
398,28-2-2023_15:49:31:849377,paved,cons-acc-40,0.6904999897018602,-0.3443169082071329,-2.466923871976762,-0.3002361696972716,0.07909363415584901,-0.005478131623120795,0.7500008660157841,0.7142857415276529,0.49999944950239295,0
399,28-2-2023_15:49:31:905367,paved,cons-acc-40,0.5767789291175445,-0.7566038620835025,-2.16277651121463,-0.22188794639574158,0.08697019830318355,0.0019289241877125636,0.6250001433261806,0.7142857415276529,0.24999944896091997,0
400,28-2-2023_15:49:31:961361,paved,cons-acc-40,-0.5244929100391285,-1.503344668633994,0.016006335969287022,-0.11738913718641077,0.0955928578447208,0.002645057156104416,0.6250001433261806,0.7142857415276529,0.24999944896091997,0
401,28-2-2023_15:49:32:9353,paved,cons-acc-40,-1.1900385907951563,-1.145560225778642,-0.06599686789286725,-0.02921149752750768,0.10162248006920564,0.010494201347067317,0.3749998551591448,0.7142857415276529,0.49999944950239295,0
402,28-2-2023_15:49:32:65342,paved,cons-acc-40,-0.5272117136572009,-1.672624627125256,-0.16852353633738473,0.005315563949863107,0.04784882277118591,0.01135869536134335,0.3749998551591448,0.7142857415276529,0.49999944950239295,0
403,28-2-2023_15:49:32:113336,paved,cons-acc-40,-0.6598203902203048,-1.4926338483873076,0.15184154638513017,0.026363005383740732,0.09726258035575785,0.0013857325648727273,0.8750015887053876,0.4285714830553062,0.24999944896091997,0
404,28-2-2023_15:49:32:161331,paved,cons-acc-40,-0.7128111073761358,-2.779639816629268,1.6276071216415826,0.06546323123372293,0.07930117828461315,0.0024627748980573217,0.8750015887053876,0.4285714830553062,0.24999944896091997,0
405,28-2-2023_15:49:32:217333,paved,cons-acc-40,-1.1839520583437337,-1.8404010564421909,2.1153326419454457,0.007984620976465677,0.050622096433510455,-0.0021303758124339204,0.6250001433261806,0.5714287076382653,0.375000275519539,0
406,28-2-2023_15:49:32:270351,paved,cons-acc-40,-1.2859477866262357,-0.9644118611003487,1.6600578097798508,-0.04591388675982628,0.023913711925602512,-0.013403947138655184,0.6250001433261806,0.5714287076382653,0.375000275519539,0
407,28-2-2023_15:49:32:326335,paved,cons-acc-40,-0.6967997855952444,-0.3107417650400952,-0.8458422489461768,-0.09107535854229193,0.005179332011908736,-0.017717938896190704,1.0,0.4285714830553062,0.375000275519539,0
408,28-2-2023_15:49:32:374345,paved,cons-acc-40,-0.5803750805732876,-0.3048371848615223,-0.04841638160385198,-0.05360636419474841,0.01382135842438663,-0.004478813223818186,1.0,0.4285714830553062,0.375000275519539,0
409,28-2-2023_15:49:32:430327,paved,cons-acc-40,-0.28816531245748594,-1.7369819715802075,0.805618418217763,-0.01590107977491753,0.01328148438385482,-0.0037520113313264354,0.3749998551591448,0.4285714830553062,0.375000275519539,0
410,28-2-2023_15:49:32:478317,paved,cons-acc-40,-1.3180161453337425,-1.5042255459718405,3.5808207110448187,0.028561837567773585,0.031126934077306802,-0.002977265885122835,0.3749998551591448,0.4285714830553062,0.375000275519539,0
411,28-2-2023_15:49:32:532139,paved,cons-acc-40,-1.0578683597246372,-0.19926913573881677,2.7974016647557587,0.03619431803934841,-0.023540084299384034,-0.00023998932328132393,0.25000028816703573,0.5714287076382653,0.7500000001804906,0
412,28-2-2023_15:49:32:585388,paved,cons-acc-40,-0.6059171648458015,-0.17643339555957105,2.2012855140913823,0.0027154267742307767,-0.010203725098414811,-0.00923058534102933,0.25000028816703573,0.5714287076382653,0.7500000001804906,0
413,28-2-2023_15:49:32:633323,paved,cons-acc-40,0.2717348111922384,-0.9375641070232356,3.4956451119153273,0.08349311466986042,-0.018127720757944735,-0.0032232019369049358,0.5000017320315661,0.7142857415276529,0.375000275519539,0
414,28-2-2023_15:49:32:681318,paved,cons-acc-40,0.26926331352328936,-1.6972805050490907,4.302084351182958,0.14380883740637282,0.019268397789690396,0.001977828010410643,0.5000017320315661,0.7142857415276529,0.375000275519539,0
415,28-2-2023_15:49:32:737368,paved,cons-acc-40,0.4823526234062478,-1.2724462445620786,3.8651121170972256,0.06697564258619815,0.01679719960640895,-0.006362946610231218,0.6250001433261806,0.4285714830553062,0.375000275519539,0
416,28-2-2023_15:49:32:793363,paved,cons-acc-40,-0.5584847591620687,-0.11960169605289606,2.050211633212807,0.00305401888904841,0.0320792795727953,-0.0033225860709867527,0.6250001433261806,0.4285714830553062,0.375000275519539,0
417,28-2-2023_15:49:32:841355,paved,cons-acc-40,-0.3024430738799897,-0.044106131969232784,0.28452213624238953,-0.0919246473941044,0.0027783746839000582,-0.013627075388186478,0.6250001433261806,0.7142857415276529,0.6250002753390483,0
418,28-2-2023_15:49:32:889349,paved,cons-acc-40,-0.18013279019107753,-1.1202724082872129,-0.22141278153315513,-0.08584298567809485,-0.04793503120732752,-0.011776532325638554,0.6250001433261806,0.7142857415276529,0.6250002753390483,0
419,28-2-2023_15:49:32:945292,paved,cons-acc-40,-0.18527499757559374,-2.138577878546418,-0.07784804978256782,-0.06709087135235622,-0.03416022297117144,-0.0012463659342386128,0.5000017320315661,0.5714287076382653,0.6250002753390483,0
420,28-2-2023_15:49:33:1277,paved,cons-acc-40,-0.6438047690973174,-1.016007416315505,-0.5588470327795017,-0.051663637636840336,-0.015111103663238347,-0.006560163279174598,0.5000017320315661,0.5714287076382653,0.6250002753390483,0
421,28-2-2023_15:49:33:49312,paved,cons-acc-40,-0.5034442947596522,-0.2759007879020211,-1.0965468320893175,-0.027013553811328108,-0.016723824709684833,0.0012119213451964005,0.7500008660157841,0.1428572245829591,0.6250002753390483,0
422,28-2-2023_15:49:33:105262,paved,cons-acc-40,-0.4613200131515749,0.22352874482968,-0.25396651466284226,-0.0015613388730313926,-0.025578296633523973,-0.0011345382048451123,0.7500008660157841,0.1428572245829591,0.6250002753390483,0
423,28-2-2023_15:49:33:153306,paved,cons-acc-40,-0.6800719203016371,-1.0228748299447616,0.9648132621332481,0.014758793005833739,-0.010108212883112458,-0.0029836503692341333,0.3749998551591448,0.7142857415276529,0.7500000001804906,0
424,28-2-2023_15:49:33:201300,paved,cons-acc-40,-0.5820633243507296,-2.0038303314017174,1.0292811742261145,0.02272151586604023,-0.01219061424604978,0.004181607551035032,0.3749998551591448,0.7142857415276529,0.7500000001804906,0
425,28-2-2023_15:49:33:257266,paved,cons-acc-40,-0.8469561395379803,-2.13766207386657,0.9735144410092964,-0.024736538977991836,0.009304789506278194,-0.004915613098496955,0.3749998551591448,0.5714287076382653,0.7500000001804906,0
426,28-2-2023_15:49:33:313285,paved,cons-acc-40,-1.1770705626345592,-1.23317614992493,-0.003804276387130101,-0.0019117920576857995,0.028487820164168294,0.0007020909847247989,0.3749998551591448,0.5714287076382653,0.7500000001804906,0
427,28-2-2023_15:49:33:361268,paved,cons-acc-40,-0.9127951820146523,-0.9486192469245575,-1.2232736331174006,-0.009913328153997397,0.0028100289902060344,-0.0005978279785818373,0.5000017320315661,0.5714287076382653,0.375000275519539,0
428,28-2-2023_15:49:33:417234,paved,cons-acc-40,-0.7785957241827924,-0.6536546585966361,0.6015624251796272,-0.0038212982681172358,-0.017232629334595274,-0.0028035431145442286,0.5000017320315661,0.5714287076382653,0.375000275519539,0
429,28-2-2023_15:49:33:465264,paved,cons-acc-40,-0.3912280124925176,-1.1123728695728374,1.494329315057846,-0.02479412898864637,0.00863573189012598,-0.003366779623901233,0.6250001433261806,0.4285714830553062,0.6250002753390483,0
430,28-2-2023_15:49:33:513211,paved,cons-acc-40,-0.08217122077475386,-1.5304326648246906,0.24178884451501492,-0.048340185328673554,-0.048147310570077435,-0.008687318417462123,0.6250001433261806,0.4285714830553062,0.6250002753390483,0
431,28-2-2023_15:49:33:569252,paved,cons-acc-40,-0.3925093965443654,-0.9838163452234662,-0.38058960246382956,-0.047974771050313836,-0.007763064251537825,-0.013127011637098196,0.5000017320315661,0.4285714830553062,0.7500000001804906,0
432,28-2-2023_15:49:33:618296,paved,cons-acc-40,0.5131032598818024,-0.21959630493904758,-0.8787954095731905,-0.027451241988719323,-0.04455063535632038,-0.005415496964383022,0.5000017320315661,0.4285714830553062,0.7500000001804906,0
433,28-2-2023_15:49:33:675389,paved,cons-acc-40,-0.23995791801632071,0.16028261311678682,-0.24886753639991732,-0.03041495913641907,-0.04539745752341894,-0.009197870180837583,0.3749998551591448,0.4285714830553062,0.49999944950239295,0
434,28-2-2023_15:49:33:723429,paved,cons-acc-40,0.09541236891721377,-0.3267162139366908,-0.5391329131870859,-0.054122544655619255,-0.048068910694108326,-0.00852070275739243,0.3749998551591448,0.4285714830553062,0.49999944950239295,0
435,28-2-2023_15:49:33:779421,paved,cons-acc-40,0.17115799929750924,-0.7700520211682298,-0.09230065236151436,-0.05453145020472093,-0.022911074130012095,-0.003338880752865053,0.7500008660157841,0.4285714830553062,0.6250002753390483,0
436,28-2-2023_15:49:33:835372,paved,cons-acc-40,0.6029567621078499,-1.786957910841569,-0.12552873869311815,-0.07579131243575776,-0.02396935018807999,-0.0012460852603584094,0.7500008660157841,0.4285714830553062,0.6250002753390483,0
437,28-2-2023_15:49:33:883363,paved,cons-acc-40,0.21404900833892904,-1.3862354496319655,-0.17001153396329205,-0.06891124296658796,-0.0341381205301947,-0.007267866325565471,0.5000017320315661,0.7142857415276529,0.6250002753390483,0
438,28-2-2023_15:49:33:931403,paved,cons-acc-40,-0.11846755747183069,-1.7077568035826838,0.06161871874424063,-0.07969830754086413,-0.016620678076766548,-0.0030954077938491224,0.5000017320315661,0.7142857415276529,0.6250002753390483,0
439,28-2-2023_15:49:33:987370,paved,cons-acc-40,-0.548067448367904,-1.3710029660143124,0.754765989879466,-0.05445829813041258,0.0012718190390909982,0.0018437633930487732,0.6250001433261806,0.1428572245829591,0.49999944950239295,0
440,28-2-2023_15:49:34:35346,paved,cons-acc-40,-0.43332512935106665,-1.4071656580644945,1.5997578451171954,-0.0526531340965825,-0.016785079604335267,0.001908681974205204,0.6250001433261806,0.1428572245829591,0.49999944950239295,0
441,28-2-2023_15:49:34:91337,paved,cons-acc-40,-0.10057011858500198,-0.8190974543596069,2.756411861844109,-0.024623360004413293,-0.008400430404662654,0.007415902321227761,0.7500008660157841,0.7142857415276529,0.24999944896091997,0
442,28-2-2023_15:49:34:139331,paved,cons-acc-40,-0.34706333134445966,-1.3748104521399813,0.6474601350470466,-0.05641145018698825,0.005467525601956092,6.26244973969672e-05,0.7500008660157841,0.7142857415276529,0.24999944896091997,0
443,28-2-2023_15:49:34:195382,paved,cons-acc-40,0.1843874470428446,-1.125654244544542,0.5848578002816194,-0.002176899431467462,0.022358608324757515,0.008388952881477188,0.25000028816703573,0.4285714830553062,0.7500000001804906,0
444,28-2-2023_15:49:34:243374,paved,cons-acc-40,0.15344756037933843,-1.3183993426023088,0.31681822609333854,0.007337298146407748,0.02231512203738624,0.005697643143957574,0.25000028816703573,0.4285714830553062,0.7500000001804906,0
445,28-2-2023_15:49:34:299365,paved,cons-acc-40,0.5943761572763735,-1.7285515122382131,-0.6013950960900792,0.0029963169867945226,0.008134192859117595,0.002317206302911662,0.7500008660157841,0.5714287076382653,0.375000275519539,0
446,28-2-2023_15:49:34:347359,paved,cons-acc-40,1.2339341524324086,-1.0251316465157316,-2.27537144345815,-0.03505954387086094,0.022324990337053395,0.011799776824690777,0.7500008660157841,0.5714287076382653,0.375000275519539,0
447,28-2-2023_15:49:34:397359,paved,cons-acc-40,0.8134172769021353,-0.06739248317160873,-0.556273781676738,-0.060132361179684124,-0.002654552939193564,0.00719613358454612,0.5000017320315661,0.8571427751667867,0.49999944950239295,0
448,28-2-2023_15:49:34:453413,paved,cons-acc-40,1.1232980517895557,-0.5709141388664474,-0.13879390276079234,-0.01240393681221396,0.007743813332204731,0.005297361207078636,0.5000017320315661,0.8571427751667867,0.49999944950239295,0
449,28-2-2023_15:49:34:509406,paved,cons-acc-40,0.4353199993495427,-0.29623015774463113,0.1430015255531107,-0.0026366861574525363,9.11713605419636e-05,0.00855306290396303,0.5000017320315661,0.5714287076382653,0.6250002753390483,0
450,28-2-2023_15:49:34:557377,paved,cons-acc-40,0.18261836523641883,-0.6486090913907463,-0.8129960451895755,-0.033622496066900064,0.0003194410853882226,0.0002672793780638394,0.5000017320315661,0.5714287076382653,0.6250002753390483,0
451,28-2-2023_15:49:34:605348,paved,cons-acc-40,0.37661925211685543,-0.9164569673029132,-1.4796695838439535,-0.03926383863590291,-0.04293492621184894,0.008103731600845305,0.6250001433261806,0.7142857415276529,0.49999944950239295,0
452,28-2-2023_15:49:34:661387,paved,cons-acc-40,0.8871119368338825,-1.304374481590303,-1.5262316496985049,-0.06329168941444917,-0.09117824636386074,0.008610067873907895,0.6250001433261806,0.7142857415276529,0.49999944950239295,0
453,28-2-2023_15:49:34:709387,paved,cons-acc-40,-0.11927003416942727,-0.7596403643116021,0.6447638868307828,-0.06199787567884752,-0.06688542325808329,0.013026765751906772,0.5000017320315661,0.5714287076382653,0.6250002753390483,0
454,28-2-2023_15:49:34:765331,paved,cons-acc-40,0.3648192143937788,-0.5458738186190819,-1.6731856698725007,-0.053996870010098896,-0.06151576579929976,0.010616020285075568,0.5000017320315661,0.5714287076382653,0.6250002753390483,0
455,28-2-2023_15:49:34:821377,paved,cons-acc-40,-0.47003908355184293,-1.0874453030742668,-1.4864766555467686,-0.02866761843982878,-0.024133662840658474,0.00042871114523812884,0.6250001433261806,0.4285714830553062,0.49999944950239295,0
456,28-2-2023_15:49:34:869318,paved,cons-acc-40,-0.2083313371515657,-1.2233406288192699,-1.100558708308886,7.316000979773127e-05,-0.02812768396623682,-0.0021051622530288984,0.6250001433261806,0.4285714830553062,0.49999944950239295,0
457,28-2-2023_15:49:34:917337,paved,cons-acc-40,-2.1013910464463286,0.020638934140307708,1.2953200504714941,0.0037276734953385635,-0.04342045571643656,0.00801539354949017,0.5000017320315661,0.5714287076382653,0.375000275519539,0
458,28-2-2023_15:49:34:973346,paved,cons-acc-40,-1.6208364680033989,-0.48032254623893833,2.93565739653578,0.0325333891731548,0.006618105447871822,0.007872626479829148,0.5000017320315661,0.5714287076382653,0.375000275519539,0
459,28-2-2023_15:49:35:29293,paved,cons-acc-40,-1.8715347567354461,0.2632064324788854,4.46375216726233,-0.003338891862473395,-0.037083250978185954,0.012248449940675017,0.0,0.4285714830553062,0.7500000001804906,0
460,28-2-2023_15:49:35:77290,paved,cons-acc-40,-0.884569427083914,0.19995806939679972,2.2138960355334616,-0.037279642204119896,-0.038442565577003644,0.006108045864197554,0.0,0.4285714830553062,0.7500000001804906,0
461,28-2-2023_15:49:35:133275,paved,cons-acc-40,-0.503413886680512,-0.24329935121907365,0.14518904299252444,-0.01245081664494941,-0.017187810392596314,0.004578326092656738,0.5000017320315661,0.4285714830553062,0.49999944950239295,0
462,28-2-2023_15:49:35:181274,paved,cons-acc-40,-0.40681504074698,0.3905779541922033,0.5460341931137933,-0.026127579354822975,-0.030807410586435838,-0.002482142731122481,0.5000017320315661,0.4285714830553062,0.49999944950239295,0
463,28-2-2023_15:49:35:229315,paved,cons-acc-40,-0.3938123000977004,0.7556507666897843,0.9155182096051702,-0.013736347503141733,-0.011183161845477609,0.0001031116022812543,0.3749998551591448,0.2857144491659182,0.49999944950239295,0
464,28-2-2023_15:49:35:285269,paved,cons-acc-40,-0.3531096718498843,0.6280076019307765,0.3972679138867661,-0.04008517042477072,-0.010729981732285345,0.0004398138703830354,0.3749998551591448,0.2857144491659182,0.49999944950239295,0
465,28-2-2023_15:49:35:341297,paved,cons-acc-40,-0.57601258657934,1.2210159810302819,1.1827184301699882,-0.03141231853322886,0.007816999754575947,2.195526058160278e-05,0.6250001433261806,0.4285714830553062,0.375000275519539,0
466,28-2-2023_15:49:35:389296,paved,cons-acc-40,-0.5384560601733698,0.8264291464998563,1.3085466205109562,-0.03259306587715331,0.019173289035930522,0.006428862854497291,0.6250001433261806,0.4285714830553062,0.375000275519539,0
467,28-2-2023_15:49:35:437257,paved,cons-acc-40,-0.38205937457512823,0.2746209754250296,1.290542239442518,-0.031528522779274835,0.01777409625135064,0.002916484955861196,0.5000017320315661,0.4285714830553062,0.49999944950239295,0
468,28-2-2023_15:49:35:497477,paved,cons-acc-40,-0.4766929848156331,-1.035959411289022,1.2052310123178873,-0.04924412357488238,0.023500188179180495,0.01111613402078022,0.5000017320315661,0.4285714830553062,0.49999944950239295,0
469,28-2-2023_15:49:35:544251,paved,cons-acc-40,-0.15506949695512845,-1.8895097593986523,2.0692787458074915,-0.010704490873814629,0.012447393520427452,0.018291481619578037,0.5000017320315661,0.4285714830553062,0.7500000001804906,0
470,28-2-2023_15:49:35:600245,paved,cons-acc-40,-0.7326737463915374,-2.2472252244813635,1.176799284946861,-0.04470719014779614,0.019859983270970008,0.005304755396749128,0.5000017320315661,0.4285714830553062,0.7500000001804906,0
471,28-2-2023_15:49:35:648250,paved,cons-acc-40,-0.21964953808114684,-1.44551893298545,-0.06572097237838781,-0.02766338290743597,0.03961071519350987,0.01138673315470816,0.6250001433261806,0.1428572245829591,0.375000275519539,0
472,28-2-2023_15:49:35:696251,paved,cons-acc-40,-0.2532365312898907,-0.5291877240387636,-0.391414548797116,-0.01675893405652857,0.01565883921005706,0.0090039682937362,0.6250001433261806,0.1428572245829591,0.375000275519539,0
473,28-2-2023_15:49:35:752265,paved,cons-acc-40,-0.6986453107050123,0.06631410322822817,-0.2104209307238753,-0.060741797235806236,-0.02398641892771994,-0.0036512415353947524,0.3749998551591448,0.5714287076382653,0.7500000001804906,0
474,28-2-2023_15:49:35:808260,paved,cons-acc-40,0.2228479994555086,-0.30450686732336385,-1.0265481972341979,-0.06460806635368779,-0.032626699694338714,-0.0018817540747161946,0.3749998551591448,0.5714287076382653,0.7500000001804906,0
475,28-2-2023_15:49:35:856253,paved,cons-acc-40,0.6822240672487294,-0.12074891856713427,-1.6954818051153533,-0.07415956051113795,-0.01589764008142714,0.004551377879318759,0.5000017320315661,0.2857144491659182,0.24999944896091997,0
476,28-2-2023_15:49:35:904245,paved,cons-acc-40,0.3917925032741659,1.0819138946678408,-0.6186163724909446,-0.0642325139221076,0.04554965359836331,0.004763742377772722,0.5000017320315661,0.2857144491659182,0.24999944896091997,0
477,28-2-2023_15:49:35:960239,paved,cons-acc-40,-0.39439976824026735,1.2634089934344006,-1.1523683127989102,-0.0677182537127928,-0.003241525971664362,0.003065507150432983,0.5000017320315661,0.7142857415276529,0.375000275519539,0
478,28-2-2023_15:49:36:16210,paved,cons-acc-40,0.002252722257382822,0.602353721669305,0.4831690793701082,-0.05042094845822351,0.013430576028373803,-0.012191179663558756,0.5000017320315661,0.7142857415276529,0.375000275519539,0
479,28-2-2023_15:49:36:64178,paved,cons-acc-40,-0.134414720237631,0.632528619078765,0.8480712654976634,-0.011625097797679576,-0.00473671702704544,-0.0006777145374033226,0.5000017320315661,0.7142857415276529,0.49999944950239295,0
480,28-2-2023_15:49:36:120172,paved,cons-acc-40,-1.0907071141663511,1.2524539392223617,2.2452071086040473,0.07454244458350055,0.03193739393932034,0.023358166433430062,0.5000017320315661,0.7142857415276529,0.49999944950239295,0
481,28-2-2023_15:49:36:168180,paved,cons-acc-40,-0.6630248159077021,1.049511109990989,2.1546391294010694,0.04196780635890818,0.009808821431090638,0.016383334948453412,0.5000017320315661,0.7142857415276529,0.6250002753390483,0
482,28-2-2023_15:49:36:216171,paved,cons-acc-40,-1.1956912897454297,-0.2480789452165153,2.776169660502572,0.054053863202573965,0.04806523839079673,0.017227834062027922,0.5000017320315661,0.7142857415276529,0.6250002753390483,0
483,28-2-2023_15:49:36:272169,paved,cons-acc-40,-0.21688481962390893,-1.0108557065372867,2.3177739511293356,0.08304580358266972,0.07592587627206261,0.016626481443390063,0.25000028816703573,0.5714287076382653,0.375000275519539,0
484,28-2-2023_15:49:36:328162,paved,cons-acc-40,-0.9212385821281607,0.055805997204182445,2.547239999675879,0.031342165210359936,0.023583492074697204,0.003684324876572446,0.25000028816703573,0.5714287076382653,0.375000275519539,0
485,28-2-2023_15:49:36:376141,paved,cons-acc-40,-1.1335578242556055,0.19029434893584748,0.8743475745017473,0.04214571886884179,-0.01855009519369099,0.007480918146489117,0.6250001433261806,0.5714287076382653,0.375000275519539,0
486,28-2-2023_15:49:36:424145,paved,cons-acc-40,-1.2331826399516315,-0.29712332865545554,1.8389009450079623,0.08643551289469592,-0.026754086502507143,0.01052445811457568,0.6250001433261806,0.5714287076382653,0.375000275519539,0
487,28-2-2023_15:49:36:480130,paved,cons-acc-40,-1.8667610688188092,0.7048329106823021,-0.4301191836807883,0.0643966234013583,-0.04224208115420704,0.008537659881098388,0.3749998551591448,0.4285714830553062,0.6250002753390483,0
488,28-2-2023_15:49:36:528146,paved,cons-acc-40,-1.394190311196186,0.8274962178133741,-0.28723950424089906,0.029491799663764653,-0.06411181586880986,0.006101444311941051,0.3749998551591448,0.4285714830553062,0.6250002753390483,0
489,28-2-2023_15:49:36:584115,paved,cons-acc-40,-0.7720356556415336,1.0233730345945204,-2.8974682744566618,-0.04964443995298179,-0.08798518853809961,0.005637806618753469,0.6250001433261806,0.4285714830553062,0.6250002753390483,0
490,28-2-2023_15:49:36:640116,paved,cons-acc-40,0.18682976759316883,0.678119725561686,-3.463501312543865,-0.08342777140007532,-0.03451748862494777,0.0008815321128281695,0.6250001433261806,0.4285714830553062,0.6250002753390483,0
491,28-2-2023_15:49:36:688147,paved,cons-acc-40,0.9210642225188338,-0.0015781239904409938,-1.9291760233968414,-0.0948454603078786,-0.013555846874469018,0.002116627846017657,0.5000017320315661,0.4285714830553062,0.6250002753390483,0
492,28-2-2023_15:49:36:736142,paved,cons-acc-40,0.358431555290582,1.2249484440104426,-4.079270860308167,-0.07667063609223511,0.014200191692060528,0.006954836110891321,0.5000017320315661,0.4285714830553062,0.6250002753390483,0
493,28-2-2023_15:49:36:792113,paved,cons-acc-40,0.31093145222229795,2.4450775927742034,-2.4771469740920895,-0.09971286977842458,0.009710565159395312,-0.0011537942659568014,0.6250001433261806,0.5714287076382653,0.6250002753390483,0
494,28-2-2023_15:49:36:848126,paved,cons-acc-40,0.154327708026832,1.681934064063845,-1.3505949445774956,-0.11272898225601793,-0.0005364516031335538,-0.0038748587901734333,0.6250001433261806,0.5714287076382653,0.6250002753390483,0
495,28-2-2023_15:49:36:896090,paved,cons-acc-40,0.6750864861585737,0.8514300183582236,0.2106624330482063,-0.017598589268908102,0.033815363155257544,-1.0352341946812376e-05,0.5000017320315661,0.7142857415276529,0.49999944950239295,0
496,28-2-2023_15:49:36:944071,paved,cons-acc-40,-0.16100969037059265,0.010476911706462366,0.8510445831463088,-0.02868772871494732,0.03747859403501293,-0.019593547091311826,0.5000017320315661,0.7142857415276529,0.49999944950239295,0
497,28-2-2023_15:49:37:108,paved,cons-acc-40,-0.6020173394809034,-0.4019171947496499,0.7717095952774116,-0.05338591035373731,-0.01817486781559352,-0.018556377050255368,0.3749998551591448,0.5714287076382653,0.7500000001804906,0
498,28-2-2023_15:49:37:48063,paved,cons-acc-40,0.341634676172479,-0.23025452084528053,0.8557970074307034,-0.010954368074128043,0.013517662814342246,-0.010422551104177603,0.3749998551591448,0.5714287076382653,0.7500000001804906,0
499,28-2-2023_15:49:37:104046,paved,cons-acc-40,0.6971719366292337,-0.12461613316087812,-0.4870855895934244,-0.036119643839775104,-0.0025125745659032514,-0.0062774370751826816,0.3749998551591448,0.2857144491659182,0.49999944950239295,0
500,28-2-2023_15:49:37:160040,paved,cons-acc-40,0.39853468986467616,-0.40728361548389624,-0.23921296905344186,-0.08106011500788324,-0.0384089271061003,-0.004886434870256057,0.3749998551591448,0.2857144491659182,0.49999944950239295,0
501,28-2-2023_15:49:37:208033,paved,cons-acc-40,0.4626128392734018,-0.2117590432016064,-1.5333410463572732,-0.10762697227943945,-0.031003194384300478,-0.01539051120773833,0.25000028816703573,0.2857144491659182,0.49999944950239295,0
502,28-2-2023_15:49:37:256025,paved,cons-acc-40,0.6430685183009681,0.23181954986478923,-1.1063393502930992,-0.05261445272996753,0.01572593315546042,-0.008298465573171555,0.25000028816703573,0.2857144491659182,0.49999944950239295,0
503,28-2-2023_15:49:37:312042,paved,cons-acc-40,-0.2624409359351553,0.09684875209076704,-0.10116288233075421,-0.0200963327021495,-0.0382954228892395,0.008768256409196052,0.25000028816703573,0.4285714830553062,0.49999944950239295,0
504,28-2-2023_15:49:37:368095,paved,cons-acc-40,-0.15671802330175716,-0.3092822542320712,-1.5049479750346744,-0.057482222232743685,-0.013086701951891596,-0.007446282989720809,0.25000028816703573,0.4285714830553062,0.49999944950239295,0
505,28-2-2023_15:49:37:418565,paved,cons-acc-40,0.2501595628468253,-1.2823030186387216,-2.311116692114334,-0.026900331542757516,-0.016149880373047796,-0.0026244322800113903,0.7500008660157841,0.1428572245829591,0.49999944950239295,0
506,28-2-2023_15:49:37:466564,paved,cons-acc-40,0.1587563385765694,-0.42605700361998444,-0.9721032827843192,-0.008206466033559023,-0.008167431669780829,0.0012940077552287127,0.7500008660157841,0.1428572245829591,0.49999944950239295,0
507,28-2-2023_15:49:37:522550,paved,cons-acc-40,-0.1776974121121,0.17334290980667055,0.5269869700631469,-0.015370870654981335,-0.002035391602481431,-0.0062385218934122135,0.5000017320315661,0.2857144491659182,0.24999944896091997,0
508,28-2-2023_15:49:37:570546,paved,cons-acc-40,-0.1163496678463663,0.40798389512747035,1.4573078156355281,0.03541410609703049,0.0728937534452495,0.009282575466445477,0.5000017320315661,0.2857144491659182,0.24999944896091997,0
509,28-2-2023_15:49:37:626537,paved,cons-acc-40,-0.8190818101720825,-0.11643414942017272,3.9902361271801667,0.0667518263853785,0.04102065304419177,-0.0009035079322502557,0.3749998551591448,0.4285714830553062,0.375000275519539,0
510,28-2-2023_15:49:37:680408,paved,cons-acc-40,-0.8380228267676871,-0.26607750456785606,4.5843517811940195,0.07593753691896549,0.040290211834299865,-0.0032600206923118955,0.3749998551591448,0.4285714830553062,0.375000275519539,0
511,28-2-2023_15:49:37:729686,paved,cons-acc-40,-0.8281924061496857,-0.8019853964873151,5.035015228786098,0.09027145550213019,0.013041366335575871,-0.0008657230727193588,0.12499956547743221,0.4285714830553062,0.375000275519539,0
512,28-2-2023_15:49:37:777688,paved,cons-acc-40,-0.2511633499947943,-1.1266156563742493,3.254797634826982,0.07755002765156754,0.04385478885691044,-0.0009469999771588843,0.12499956547743221,0.4285714830553062,0.375000275519539,0
513,28-2-2023_15:49:37:833682,paved,cons-acc-40,-0.15882821385919957,-0.51735081643275,1.3879704031664597,-0.00040389791511048767,0.024466739310472753,-0.0046902100614784345,0.5000017320315661,0.2857144491659182,0.6250002753390483,0
514,28-2-2023_15:49:37:881673,paved,cons-acc-40,0.1622207183358315,0.011125767010958687,0.07520575134941909,-0.036334772752103055,0.03893970024775614,0.0007777309114666798,0.5000017320315661,0.2857144491659182,0.6250002753390483,0
515,28-2-2023_15:49:37:938111,paved,cons-acc-40,0.07139184015890919,0.8199952612693114,0.6204279617856089,-0.03977584223830041,0.014063657929664644,-0.009419917076671166,0.25000028816703573,0.4285714830553062,0.49999944950239295,0
516,28-2-2023_15:49:37:984711,paved,cons-acc-40,-0.5499233695629151,1.324501694339346,1.309338928907101,-0.06869343315267193,-0.044975867573238876,-0.012488107873264846,0.25000028816703573,0.4285714830553062,0.49999944950239295,0
517,28-2-2023_15:49:38:44949,paved,cons-acc-40,-0.08201185462860938,2.391893830409789,-0.13660897032395547,-0.10743798012131707,-0.0334120273071399,-0.0032546535828935907,0.3749998551591448,0.5714287076382653,0.7500000001804906,0
518,28-2-2023_15:49:38:89744,paved,cons-acc-40,-0.01101011843821828,0.33010640314525874,1.6422485705394032,-0.06736142124842046,-0.04755102086279918,-0.007057147794440062,0.3749998551591448,0.5714287076382653,0.7500000001804906,0
519,28-2-2023_15:49:38:145782,paved,cons-acc-40,-0.040681066420896334,-0.07080987510631342,1.9084024265887263,-0.07811586515232355,-0.044137206502572045,0.0021068409501622566,0.5000017320315661,0.2857144491659182,0.49999944950239295,0
520,28-2-2023_15:49:38:193715,paved,cons-acc-40,0.17994802782168426,0.010704773272947457,2.4206350159269894,-0.0357099641380728,-0.052159668330451284,0.009074943561891178,0.5000017320315661,0.2857144491659182,0.49999944950239295,0
521,28-2-2023_15:49:38:249711,paved,cons-acc-40,-1.5930186061576772,-0.5816719856790913,4.5183957067627105,-0.008875569067355052,-0.017666382461562553,-0.005573866307741029,0.3749998551591448,0.5714287076382653,0.7500000001804906,0
