sr_no,timestamp,road_type,harsh_event,acc_x,acc_y,acc_z,gyro_x,gyro_y,gyro_z,mag_x,mag_y,mag_z,event_class
1,28-2-2023_15:47:20:424594,paved,cons-acc-20,-0.5498691579309845,0.24281952340028137,0.2521884400244875,-0.1501370429793336,0.06178533936746125,-0.03267139105407288,0.4444452707746772,0.8333333194072756,0.2857142857142857,0
2,28-2-2023_15:47:20:806397,paved,cons-acc-20,-0.47325413012301076,-0.09284901892819822,0.20376594804971962,-0.14769648617121145,0.03664529184335332,-0.02914136559873291,0.4444452707746772,0.8333333194072756,0.2857142857142857,0
3,28-2-2023_15:47:20:822955,paved,cons-acc-20,0.24610234856501,0.09948917829558218,0.1917495406222992,-0.06822662636242763,0.03041266037791502,-0.030934287635386595,0.5555547292253228,0.3333334447417946,0.5714285714285714,0
4,28-2-2023_15:47:20:822955,paved,cons-acc-20,0.1567377511639857,0.19918546959357902,0.38412904996072794,-0.06884778696730552,0.08836934771172068,-0.009450374775324396,0.5555547292253228,0.3333334447417946,0.5714285714285714,0
5,28-2-2023_15:47:20:830956,paved,cons-acc-20,0.16936952250729512,0.4894356742232259,-1.54505707584299,-0.07379050484783943,0.014223241134920211,-0.014957248914086858,0.5555547292253228,0.500000125334519,0.5714285714285714,0
6,28-2-2023_15:47:20:838957,paved,cons-acc-20,0.011613014248862907,-0.03128203571674221,0.08065291893817195,-0.027625643638655516,-0.0031105212579354766,-0.011677091627923046,0.5555547292253228,0.500000125334519,0.5714285714285714,0
7,28-2-2023_15:47:20:846950,paved,cons-acc-20,-0.4225144033233585,-0.39030687418962295,-0.6202152819762519,-0.02327281955101118,0.03220455939481674,-0.007214685425301018,0.4444452707746772,0.500000125334519,0.5714285714285714,0
8,28-2-2023_15:47:20:854949,paved,cons-acc-20,-0.35101686424650225,-1.2015317143679178,0.3701511161175376,0.040961452941063445,-0.006905977732949299,0.010911447223653985,0.4444452707746772,0.500000125334519,0.5714285714285714,0
9,28-2-2023_15:47:20:862952,paved,cons-acc-20,-0.027942524514417977,-1.3214150420337802,-1.076159682655847,0.0009429109609154426,0.06800719586802662,0.000547441227904193,0.6666663127242063,0.500000125334519,0.8571428571428571,0
10,28-2-2023_15:47:20:894992,paved,cons-acc-20,-0.21622700842894818,-0.369621755500814,-1.2286861894862369,-0.01865838266412009,-0.0019574243934627755,-0.01389997102536974,0.6666663127242063,0.500000125334519,0.8571428571428571,0
11,28-2-2023_15:47:20:942942,paved,cons-acc-20,0.3288617313277574,0.09030155272539503,-2.051726195633108,-0.044724972761970815,0.04255689862595977,-0.02794968525976061,0.6666663127242063,0.8333333194072756,0.5714285714285714,0
12,28-2-2023_15:47:20:998960,paved,cons-acc-20,0.26633339827749414,0.5755267515965712,-1.3387063042800815,-0.030066940538786634,-0.0032325293198408947,-0.019754606422802364,0.6666663127242063,0.8333333194072756,0.5714285714285714,0
13,28-2-2023_15:47:21:46934,paved,cons-acc-20,0.6900867882830815,-0.29606818596874207,-1.924379963944286,-0.027874822896361954,0.01716252695611258,-0.013464904778717753,0.4444452707746772,0.500000125334519,0.2857142857142857,0
14,28-2-2023_15:47:21:102956,paved,cons-acc-20,0.8153709344842577,0.3226208571978121,-0.7071587132573369,-0.021680757787619465,-0.039895566111919786,-0.01860531336880626,0.4444452707746772,0.500000125334519,0.2857142857142857,0
15,28-2-2023_15:47:21:158915,paved,cons-acc-20,-0.0035579449419315123,0.18640296500359427,-0.5560288692367545,-0.09331668776623576,-0.017799333546050948,-0.026876384267111492,0.5555547292253228,0.500000125334519,0.5714285714285714,0
16,28-2-2023_15:47:21:206916,paved,cons-acc-20,0.01213931075375517,0.4573592915163073,1.8092670438752574,-0.06022963972809629,-0.07896031085425648,-0.014264387728615888,0.5555547292253228,0.500000125334519,0.5714285714285714,0
17,28-2-2023_15:47:21:254917,paved,cons-acc-20,1.8916094935484982,-0.49519164834390084,-1.5173520234613447,-0.05849930480468524,-0.023896813626265848,-0.00047722603539734725,0.4444452707746772,0.6666666385952433,0.42857079749066884,0
18,28-2-2023_15:47:21:310903,paved,cons-acc-20,1.6702940398497974,0.19847164371603465,-2.6009511518018753,-0.07436308179457152,0.003610919960243354,-0.022027205693168683,0.4444452707746772,0.6666666385952433,0.42857079749066884,0
19,28-2-2023_15:47:21:358897,paved,cons-acc-20,1.05649898532209,-0.5050737226862541,-2.08995104353894,-0.016385759752369874,0.07286329753279427,-0.02873301410278189,0.0,0.500000125334519,0.7142857142857143,0
20,28-2-2023_15:47:21:414893,paved,cons-acc-20,0.9022451613058875,0.8031519093038892,-1.6216518345489817,-0.0026386623670202527,0.042099846301993496,-0.020371427674142684,0.0,0.500000125334519,0.7142857142857143,0
21,28-2-2023_15:47:21:462876,paved,cons-acc-20,0.20662759484103743,0.7483596897218582,-1.20008824360272,-0.043210611747784816,0.0836745133854534,-0.014733372061556234,0.6666663127242063,0.3333334447417946,0.5714285714285714,0
22,28-2-2023_15:47:21:518868,paved,cons-acc-20,-0.7151361841325808,0.2672861463392354,-1.3849106063908803,-0.08002072737156452,0.04930704974938046,-0.009479207993797908,0.6666663127242063,0.3333334447417946,0.5714285714285714,0
23,28-2-2023_15:47:21:566867,paved,cons-acc-20,-0.7777589814197035,-0.15638951711417037,-1.963638670282378,-0.05230881485758071,0.010002183840799775,-0.02947232089707517,0.4444452707746772,0.8333333194072756,0.7142857142857143,0
24,28-2-2023_15:47:21:622859,paved,cons-acc-20,0.47593299360232777,0.6180540075287366,-2.410614066224895,-0.035213406021084095,-0.04787158505439185,-0.03990068927240889,0.4444452707746772,0.8333333194072756,0.7142857142857143,0
25,28-2-2023_15:47:21:670853,paved,cons-acc-20,2.398454954322763,0.22395523780290244,-3.020537917314865,0.022763526725442747,-0.07730397499783609,-0.031020239460896284,0.2222221037769103,0.500000125334519,1.0,0
26,28-2-2023_15:47:21:726840,paved,cons-acc-20,2.114083929748359,0.37857653295979077,-3.1399619361995046,0.03718395730570961,-0.005846329951706336,-0.016540342327145893,0.2222221037769103,0.500000125334519,1.0,0
27,28-2-2023_15:47:21:774842,paved,cons-acc-20,1.1539792122482653,1.084198251443676,-2.0506381107335105,-0.006170987835591155,-0.06794553340824469,-0.004602397414169391,0.33333262405493713,0.6666666385952433,0.8571428571428571,0
28,28-2-2023_15:47:21:822828,paved,cons-acc-20,1.9304878810532622,1.519916763738388,-2.152392961862688,-0.06185180928207278,0.028372773642069596,-0.031195595498084008,0.33333262405493713,0.6666666385952433,0.8571428571428571,0
29,28-2-2023_15:47:21:878821,paved,cons-acc-20,0.13778563352170115,0.9079582247498935,-1.6827370443128502,0.00033839266935786066,0.09348153748408321,-0.037826017309201036,0.2222221037769103,0.500000125334519,0.5714285714285714,0
30,28-2-2023_15:47:21:934813,paved,cons-acc-20,0.10674710321619071,1.2503926193697406,-1.6783811262110249,0.03146166960450354,0.08163248342830785,-0.026255092859809495,0.2222221037769103,0.500000125334519,0.5714285714285714,0
31,28-2-2023_15:47:21:982811,paved,cons-acc-20,0.8367274066394039,0.4812999615194876,-2.04113219493416,-0.01888287032785238,0.005421389087374925,-0.03032962737754263,0.2222221037769103,0.6666666385952433,1.0,0
32,28-2-2023_15:47:22:38817,paved,cons-acc-20,0.27364462734161543,-0.15771829921496394,-3.3582383678389056,-0.0399248279748219,0.032436839587989756,-0.01843111267877509,0.2222221037769103,0.6666666385952433,1.0,0
33,28-2-2023_15:47:22:86844,paved,cons-acc-20,-0.10958768698263172,-1.5161244295426861,-2.3740268345630593,-0.06988866741744854,-0.014469197197072868,-0.034247266374932424,0.4444452707746772,0.8333333194072756,0.42857079749066884,0
34,28-2-2023_15:47:22:142790,paved,cons-acc-20,0.3814856566804271,-0.8773937669162598,-1.9902711775360795,-0.03629135351744179,0.05109677548561727,-0.02823737240082142,0.4444452707746772,0.8333333194072756,0.42857079749066884,0
35,28-2-2023_15:47:22:190787,paved,cons-acc-20,-0.7216379698865615,-1.7974175675862456,-0.36254231214941934,-0.014674155549564086,0.014707646936558093,-0.032410394836088,0.5555547292253228,0.6666666385952433,0.7142857142857143,0
36,28-2-2023_15:47:22:246780,paved,cons-acc-20,-1.2192599075438009,-0.9527259262849909,0.10233704420143086,0.038567838677511276,0.020210697161354797,-0.030450788350267294,0.5555547292253228,0.6666666385952433,0.7142857142857143,0
37,28-2-2023_15:47:22:294789,paved,cons-acc-20,-1.203888714259737,-0.09596668724271307,-0.7671437636734784,-0.015764156483777374,-0.015066112506858624,-0.037222131633438564,0.4444452707746772,0.6666666385952433,0.7142857142857143,0
38,28-2-2023_15:47:22:346191,paved,cons-acc-20,-0.6835929599197992,0.3718538145619253,-2.4422778599513393,-0.062349469429271956,-0.05122656621807796,-0.033658576665561546,0.4444452707746772,0.6666666385952433,0.7142857142857143,0
39,28-2-2023_15:47:22:402253,paved,cons-acc-20,-1.7639890343017222,-0.6313541195339183,-1.4152265629987757,0.01884434462564638,-0.10305400665523631,-0.024148108082919305,0.4444452707746772,1.0,0.5714285714285714,0
40,28-2-2023_15:47:22:450191,paved,cons-acc-20,-1.0299837647252956,-1.0840147248331489,-0.8461103589078308,-0.05214621205849981,-0.056369538412017986,-0.02944521260070655,0.4444452707746772,1.0,0.5714285714285714,0
41,28-2-2023_15:47:22:506181,paved,cons-acc-20,-0.016002642324937755,-0.6693400807325264,-2.073667250709722,-0.0666386348830206,-0.05008710222508868,-0.03157775860740514,0.6666663127242063,0.6666666385952433,0.8571428571428571,0
42,28-2-2023_15:47:22:558194,paved,cons-acc-20,0.038654852873927885,1.0647440696318369,-2.673583950811415,-0.08341796618683352,-0.06511305905138581,-0.02610272368364915,0.6666663127242063,0.6666666385952433,0.8571428571428571,0
43,28-2-2023_15:47:22:606255,paved,cons-acc-20,-3.52965555643625,0.8230752123733731,3.2359135313164806,-0.02392531952284719,0.006858928337771075,-0.015419711174977493,0.4444452707746772,0.3333334447417946,0.42857079749066884,0
44,28-2-2023_15:47:22:654227,paved,cons-acc-20,-2.2625083142164693,-0.8138141927537157,1.257992972061227,-0.08370333402986166,-0.024887331442420953,0.0007268249258655171,0.4444452707746772,0.3333334447417946,0.42857079749066884,0
45,28-2-2023_15:47:22:710235,paved,cons-acc-20,-0.7301160616604467,-0.8724455467092472,0.7449446944841819,-0.07891863232891991,0.01916426576222078,-0.019146428340020522,0.4444452707746772,0.500000125334519,0.42857079749066884,0
46,28-2-2023_15:47:22:766180,paved,cons-acc-20,-0.09721702788135067,-0.937000815873962,-0.6108847623190087,-0.0677301783495841,-0.00543692781601364,-0.033072350718120536,0.4444452707746772,0.500000125334519,0.42857079749066884,0
47,28-2-2023_15:47:22:814172,paved,cons-acc-20,-0.0695573009836018,-1.0401934954597347,-0.5983789927109616,-0.02741575129552927,0.013407291830412515,-0.04057890896633282,0.33333262405493713,0.500000125334519,0.8571428571428571,0
48,28-2-2023_15:47:22:870173,paved,cons-acc-20,0.0186470263970131,-1.0149118314096732,-0.9055428797708592,-0.0433999088426406,0.010756814385226993,-0.02947908736769709,0.33333262405493713,0.500000125334519,0.8571428571428571,0
49,28-2-2023_15:47:22:918161,paved,cons-acc-20,0.141041102325424,-1.3225078283806049,0.01851005383879123,-0.026717315340946086,0.0009209390552960897,-0.02168330439318724,0.33333262405493713,0.6666666385952433,0.42857079749066884,0
50,28-2-2023_15:47:22:974156,paved,cons-acc-20,-0.3218873359642511,-1.6297654672884985,-0.5275253814101294,-0.07344947781161795,-0.0015884117301511605,-0.023133948025402813,0.33333262405493713,0.6666666385952433,0.42857079749066884,0
51,28-2-2023_15:47:23:22151,paved,cons-acc-20,-0.9833661778628865,-1.234103298542236,1.4774031040026347,-0.03372850916360934,0.04238588822205861,-0.016014805332002738,0.2222221037769103,0.500000125334519,0.8571428571428571,0
52,28-2-2023_15:47:23:78138,paved,cons-acc-20,-0.05448980789896862,-1.1670992357349153,0.03151764564869253,-0.05969634461498255,0.03992504497448922,-0.027421610787994377,0.2222221037769103,0.500000125334519,0.8571428571428571,0
53,28-2-2023_15:47:23:126132,paved,cons-acc-20,-0.931094745276673,-1.2607817566080959,2.6575825576768777,0.011064942567462419,0.05425065769558312,-0.02417642084420973,0.0,0.8333333194072756,0.5714285714285714,0
54,28-2-2023_15:47:23:182124,paved,cons-acc-20,-1.3151103929218673,-0.2554317406967861,-0.1662180028760294,-0.016787620093507535,0.06860961700180912,-0.021317782123025427,0.0,0.8333333194072756,0.5714285714285714,0
55,28-2-2023_15:47:23:230167,paved,cons-acc-20,-0.621825576021953,0.3467676592482434,-0.43969057189977273,0.018259685178367697,-0.010488651491281864,-0.010452022594871248,0.4444452707746772,0.500000125334519,0.5714285714285714,0
56,28-2-2023_15:47:23:286162,paved,cons-acc-20,-0.192623865125023,0.3853678857011064,-0.18376918412273058,-0.03367226424746905,0.018718456255043335,-0.023254062192403547,0.4444452707746772,0.500000125334519,0.5714285714285714,0
57,28-2-2023_15:47:23:334154,paved,cons-acc-20,-0.2474562774972165,-0.738875308564529,1.779648899546678,0.023161986697595296,0.05675117520704449,-0.03020633107099848,0.2222221037769103,1.0,0.7142857142857143,0
58,28-2-2023_15:47:23:390106,paved,cons-acc-20,-0.6326101767204989,-1.1183574978312918,1.1138263362095293,0.016957841822510675,0.00820263964619214,-0.015913252471383102,0.2222221037769103,1.0,0.7142857142857143,0
59,28-2-2023_15:47:23:438116,paved,cons-acc-20,-0.5514622962425979,-1.2154676241320455,0.8910251764356147,0.042962014792056524,-0.000741497507171205,-0.01925057146659496,0.2222221037769103,0.500000125334519,0.7142857142857143,0
60,28-2-2023_15:47:23:486087,paved,cons-acc-20,0.18708684062276593,-1.3940758979449195,-0.7268232115030104,0.07458256463491003,-0.00847591310123368,-0.01771789521176588,0.2222221037769103,0.500000125334519,0.7142857142857143,0
61,28-2-2023_15:47:23:542084,paved,cons-acc-20,-2.030159606753199,-1.5328435169802244,1.6252133273824854,0.07543678576700956,-0.020350822453641997,-0.004290260142114644,0.4444452707746772,0.16666676414907033,0.7142857142857143,0
62,28-2-2023_15:47:23:598082,paved,cons-acc-20,-1.2144792854211168,-1.720500996026868,0.944022591892531,0.020525862473003406,0.06405040241625268,-0.020654274455126576,0.4444452707746772,0.16666676414907033,0.7142857142857143,0
63,28-2-2023_15:47:23:646082,paved,cons-acc-20,-0.6368300201195449,-0.8727486580786241,-0.032245338392796974,0.017671982008780007,0.013203752482759894,-0.019604383449087666,0.33333262405493713,0.6666666385952433,0.7142857142857143,0
64,28-2-2023_15:47:23:702061,paved,cons-acc-20,0.09826887192308364,-1.0695499391428944,0.888785597987424,0.030260244738018485,0.025668760305078295,-0.02491230422469349,0.33333262405493713,0.6666666385952433,0.7142857142857143,0
65,28-2-2023_15:47:23:750057,paved,cons-acc-20,-0.017903389908037373,-1.9452768739537445,0.7064712313260578,0.05139032278698953,0.08649529313448048,-0.020503552720982393,0.33333262405493713,0.3333334447417946,0.7142857142857143,0
66,28-2-2023_15:47:23:806050,paved,cons-acc-20,-0.19069513144887373,-1.1937509409443323,0.41184701035862564,0.01353377697503285,0.038634937080856635,-0.009117259061835924,0.33333262405493713,0.3333334447417946,0.7142857142857143,0
67,28-2-2023_15:47:23:854062,paved,cons-acc-20,-0.3095202049708711,-1.4708836303582695,-0.38525288263325114,-0.012848953846988417,-0.0481911933071959,-0.007770208447368495,0.2222221037769103,0.8333333194072756,0.42857079749066884,0
68,28-2-2023_15:47:23:910092,paved,cons-acc-20,-0.3447067657782864,-0.5823419684009064,-0.11543248298097658,-0.04359851412268236,-0.02846377572237076,-0.01952327270706925,0.2222221037769103,0.8333333194072756,0.42857079749066884,0
69,28-2-2023_15:47:23:958035,paved,cons-acc-20,-0.8529238531343827,-0.647784296835916,-1.3907397138584854,-0.07090308906357205,-0.025336814160640025,-0.021877940489832357,0.2222221037769103,0.500000125334519,0.7142857142857143,0
70,28-2-2023_15:47:24:6025,paved,cons-acc-20,-0.515198943165637,-0.19698075181348867,-0.2166973864135182,-0.036832820836845026,-0.050720193518761475,-0.017185046601011028,0.2222221037769103,0.500000125334519,0.7142857142857143,0
71,28-2-2023_15:47:24:62018,paved,cons-acc-20,-0.5267253099511957,-0.31039728633554964,-0.476398034516309,-0.03861335887916116,-0.021024264891357648,-0.014370945324743537,0.4444452707746772,0.3333334447417946,0.8571428571428571,0
72,28-2-2023_15:47:24:118005,paved,cons-acc-20,-0.8385440986018524,-0.5188550081296655,0.8141097379797047,0.014273173324307734,-0.003371790494103199,0.0014327798587229074,0.4444452707746772,0.3333334447417946,0.8571428571428571,0
73,28-2-2023_15:47:24:166060,paved,cons-acc-20,-0.49923842926314294,-0.7847911912613754,-0.21296705103506608,-0.02941392399441692,0.0032296350727084085,-0.013779564362002403,0.4444452707746772,0.6666666385952433,0.5714285714285714,0
74,28-2-2023_15:47:24:221991,paved,cons-acc-20,-0.9183459980563455,-1.2058905703497234,-0.6069839200725831,0.011763745947782026,0.012576553307485487,-0.009512699223924401,0.4444452707746772,0.6666666385952433,0.5714285714285714,0
75,28-2-2023_15:47:24:269985,paved,cons-acc-20,-1.5663322101807384,-0.5084952367033253,0.3061850581887836,-0.018045926226935047,-0.039661301073922434,-0.01161768316321851,0.4444452707746772,0.500000125334519,0.7142857142857143,0
76,28-2-2023_15:47:24:318029,paved,cons-acc-20,0.2363700338536352,-1.2378978332141293,-1.1939247910387785,-0.03608125395932235,-0.05965549576445183,-0.018161906617055856,0.4444452707746772,0.500000125334519,0.7142857142857143,0
77,28-2-2023_15:47:24:373978,paved,cons-acc-20,-0.08068557573266455,-1.191703296700991,-1.2079250605697947,-0.021163283169944983,0.006974235002498323,-0.008330934879286577,0.11111158349888346,0.3333334447417946,0.5714285714285714,0
78,28-2-2023_15:47:24:429990,paved,cons-acc-20,0.06821779486718385,-0.7258527413778906,-0.7293433570583545,-0.05204428581685756,0.007857672215728135,-0.003437688712385355,0.11111158349888346,0.3333334447417946,0.5714285714285714,0
79,28-2-2023_15:47:24:477965,paved,cons-acc-20,0.1868920424293502,-0.6495594253657703,-0.6165629808231297,-0.10078008572272387,-0.030228985120501754,-0.009577696135949727,0.33333262405493713,0.500000125334519,0.42857079749066884,0
80,28-2-2023_15:47:24:525959,paved,cons-acc-20,0.0952678027271366,-1.1939157745770599,-1.5068488006814689,-0.11466397637443874,0.01542680237302431,-0.013408407208878929,0.33333262405493713,0.500000125334519,0.42857079749066884,0
81,28-2-2023_15:47:24:581951,paved,cons-acc-20,0.3222044568680358,-0.7840570840471127,-1.9477619194751739,-0.04871858659750543,-0.03532801416917707,-0.00850361569436337,0.2222221037769103,0.500000125334519,0.5714285714285714,0
82,28-2-2023_15:47:24:637940,paved,cons-acc-20,0.24602571120939626,-0.6287487713302479,-4.074452644641891,-0.09922018153799955,-0.012617781519699018,-0.021184669158161865,0.2222221037769103,0.500000125334519,0.5714285714285714,0
83,28-2-2023_15:47:24:685935,paved,cons-acc-20,0.4611265019249955,-0.5560346850952511,-3.2581469119923545,-0.09573800905001265,-0.038760163757217594,-0.013237560252076666,0.33333262405493713,0.6666666385952433,0.42857079749066884,0
84,28-2-2023_15:47:24:741933,paved,cons-acc-20,0.7571550141551078,-0.9609941012747156,-1.4805406028649781,-0.018859513065801872,-0.010006675423482245,-0.014106719244292704,0.33333262405493713,0.6666666385952433,0.42857079749066884,0
85,28-2-2023_15:47:24:795372,paved,cons-acc-20,0.5213190943100803,-1.8629736014134213,-1.445096428355737,0.05403378029548467,-0.004695142439432717,-0.008384329083409282,0.4444452707746772,0.8333333194072756,0.42857079749066884,0
86,28-2-2023_15:47:24:844942,paved,cons-acc-20,0.49334102087232473,-1.0502880563853307,-0.6090739111524168,0.04801149351507472,0.04225639648237485,-0.011238776749108432,0.4444452707746772,0.8333333194072756,0.42857079749066884,0
87,28-2-2023_15:47:24:892927,paved,cons-acc-20,-0.34583224799260964,-1.0500459425918136,-0.8976376510617751,-0.004714221064640596,-0.01292342158788317,-0.0005225654759966232,0.2222221037769103,0.6666666385952433,0.5714285714285714,0
88,28-2-2023_15:47:24:948918,paved,cons-acc-20,0.06496915177923296,-1.3019704786205841,-0.4723452537663945,-0.04700463353597413,0.026514772399402024,0.0007763680908391831,0.2222221037769103,0.6666666385952433,0.5714285714285714,0
89,28-2-2023_15:47:24:996913,paved,cons-acc-20,0.13720138538491417,0.362900184381836,-2.4500716737448296,-0.07114563120856689,0.007400554044108349,-0.009931515002349059,0.2222221037769103,0.500000125334519,0.42857079749066884,0
90,28-2-2023_15:47:25:48931,paved,cons-acc-20,-0.9896840819324026,0.5978638137291753,0.1708507023962329,-0.009982958724022495,-0.0454058974247805,0.003454208892601224,0.2222221037769103,0.500000125334519,0.42857079749066884,0
91,28-2-2023_15:47:25:104946,paved,cons-acc-20,-0.13157682757978018,0.6137451903496847,0.4013425048512552,-0.030253461728195905,-0.011077044146252643,-0.014162107851583982,0.4444452707746772,0.8333333194072756,0.42857079749066884,0
92,28-2-2023_15:47:25:152938,paved,cons-acc-20,-0.5360403521716479,-0.14131154495010123,-0.5706232034849837,0.002194662495429319,-0.011664193045180954,0.0023873564798978803,0.4444452707746772,0.8333333194072756,0.42857079749066884,0
93,28-2-2023_15:47:25:208932,paved,cons-acc-20,-1.601870408944486,-0.978882297956563,2.29290290057043,-0.014662245145582047,-0.04268436768736886,-0.008682986260270838,0.5555547292253228,0.500000125334519,0.7142857142857143,0
94,28-2-2023_15:47:25:256927,paved,cons-acc-20,-1.0640190019867024,0.22994872128387378,2.1613879724340213,-0.01799983422492794,-0.07697808488893662,-0.006032364817197332,0.5555547292253228,0.500000125334519,0.7142857142857143,0
95,28-2-2023_15:47:25:312920,paved,cons-acc-20,-2.877084743582823,-1.1740387829772432,4.276946167158659,0.06967155890666957,0.05473720298392018,-0.0030196090737667045,0.33333262405493713,0.500000125334519,0.1428565117763831,0
96,28-2-2023_15:47:25:360910,paved,cons-acc-20,-1.4614222924474425,-1.1929637139081848,2.4697927288470183,0.07918672727626573,-0.016371530366569048,-0.01704357356302007,0.33333262405493713,0.500000125334519,0.1428565117763831,0
97,28-2-2023_15:47:25:416906,paved,cons-acc-20,-1.046036615245972,-2.1005730328421253,0.5989526812134571,0.10558456513326964,0.05703305950839052,-0.01591544700238603,0.11111158349888346,0.6666666385952433,0.2857142857142857,0
98,28-2-2023_15:47:25:464904,paved,cons-acc-20,-0.5240837085585194,-0.7024120262720803,0.7387855960136611,0.0775788236657505,0.0555295152877162,-0.017305520481017495,0.11111158349888346,0.6666666385952433,0.2857142857142857,0
99,28-2-2023_15:47:25:520422,paved,cons-acc-20,-0.15254275834991032,-0.1265035848734687,-0.18148902612838047,0.0061604664527904335,0.022068219973736453,0.0004473502470418757,0.33333262405493713,0.8333333194072756,0.7142857142857143,0
100,28-2-2023_15:47:25:567013,paved,cons-acc-20,-1.9945659227498942,-1.2147298416540808,2.8529252035065267,0.004980228658517319,0.010242833993141449,0.004286082128370349,0.33333262405493713,0.8333333194072756,0.7142857142857143,0
101,28-2-2023_15:47:25:623006,paved,cons-acc-20,-1.9192364451807216,-0.8957088122893162,2.5555554854248093,-0.028622586218038065,0.06850491204531746,-0.0016773548598751154,0.2222221037769103,0.6666666385952433,0.42857079749066884,0
102,28-2-2023_15:47:25:670950,paved,cons-acc-20,-2.904668216881382,-1.3843115025905166,3.173086006882283,0.004478179710868939,0.013076260733990146,-0.0008496385677325616,0.2222221037769103,0.6666666385952433,0.42857079749066884,0
103,28-2-2023_15:47:25:726948,paved,cons-acc-20,-2.2749894505317734,-0.829900343480284,1.3090129663440662,-0.05743000175056694,0.0013726899126738981,-0.006055282389449973,0.2222221037769103,0.6666666385952433,0.5714285714285714,0
104,28-2-2023_15:47:25:782937,paved,cons-acc-20,-1.3910259721369218,-2.4587848287091596,-0.6450363132887229,-0.06689829024957118,0.10259077487579599,-0.003381084408596581,0.2222221037769103,0.6666666385952433,0.5714285714285714,0
105,28-2-2023_15:47:25:830932,paved,cons-acc-20,1.4212408916144657,-1.0719969355122905,-0.7460570113769993,-0.020038285875381236,-0.012650806286686592,-0.00124486071894941,0.11111158349888346,0.16666676414907033,0.7142857142857143,0
106,28-2-2023_15:47:25:878983,paved,cons-acc-20,1.4568225296729913,-0.7148436404581417,0.2834659094807255,-0.04169673566665137,-0.07673587178085946,-0.003711540551931205,0.11111158349888346,0.16666676414907033,0.7142857142857143,0
107,28-2-2023_15:47:25:934919,paved,cons-acc-20,0.7583927864142186,-0.8154812308744634,0.23493234736128144,-0.10623463135843943,-0.024599710005638237,0.002358858197072315,0.4444452707746772,0.500000125334519,0.42857079749066884,0
108,28-2-2023_15:47:25:982912,paved,cons-acc-20,0.15152128776266116,-0.7601250918243119,-1.041869419915598,-0.12576205676635754,0.034432709413523326,-0.005331649589107644,0.4444452707746772,0.500000125334519,0.42857079749066884,0
109,28-2-2023_15:47:26:38914,paved,cons-acc-20,-0.22300782497356314,-0.8868330481553702,0.5309826592147564,-0.015590805597082716,0.000367831698599802,0.003406834271892962,0.33333262405493713,0.500000125334519,0.2857142857142857,0
110,28-2-2023_15:47:26:86902,paved,cons-acc-20,1.1355179130971191,-0.6945689919175703,-0.16009402500059688,-0.09225542336377797,0.053857397066940586,-0.0078099764402586,0.33333262405493713,0.500000125334519,0.2857142857142857,0
111,28-2-2023_15:47:26:142896,paved,cons-acc-20,1.3922850592758222,-1.0728687833930772,-0.5162617681684976,-0.08846207162111214,-0.027730314507108368,-0.0020245223283317515,0.4444452707746772,0.500000125334519,0.7142857142857143,0
112,28-2-2023_15:47:26:190896,paved,cons-acc-20,1.3835893834849662,-1.563071487939609,-0.6602559881828121,-0.028306054119457635,0.0046255001928906594,-0.006626697875548043,0.4444452707746772,0.500000125334519,0.7142857142857143,0
113,28-2-2023_15:47:26:246884,paved,cons-acc-20,-0.2979687872757004,-1.7502396845578345,-0.6473491485314027,-0.03615074135941152,0.025418369585068278,-0.014009477653706075,0.5555547292253228,0.3333334447417946,0.5714285714285714,0
114,28-2-2023_15:47:26:294879,paved,cons-acc-20,0.530987524972908,-1.478808191031626,-1.2182056199168758,-0.0152959156128139,-0.030044616695967936,-0.0129508104379027,0.5555547292253228,0.3333334447417946,0.5714285714285714,0
115,28-2-2023_15:47:26:350923,paved,cons-acc-20,-0.6690858808741386,-0.9563373270551989,-0.6714765395194172,-0.047697511158089,-0.0246947995824391,-0.004281482542883757,0.2222221037769103,0.16666676414907033,0.7142857142857143,0
116,28-2-2023_15:47:26:398902,paved,cons-acc-20,-0.22108956410642872,-0.4765208123966563,-1.86303901501212,-0.03452761061243208,-0.05078171641811414,-0.0010165447601481591,0.2222221037769103,0.16666676414907033,0.7142857142857143,0
117,28-2-2023_15:47:26:454911,paved,cons-acc-20,-0.20632248799422526,0.009333010990953183,-0.9914034068283899,0.04540886663562599,-0.0007916604216142223,-0.005934439637715174,0.33333262405493713,0.500000125334519,0.42857079749066884,0
118,28-2-2023_15:47:26:502846,paved,cons-acc-20,0.7158726766865655,-0.6666641573014787,-1.5964654783425543,-0.054161776020949515,-0.0030728206104357948,-0.023859736671118015,0.33333262405493713,0.500000125334519,0.42857079749066884,0
119,28-2-2023_15:47:26:558843,paved,cons-acc-20,1.0892232486720808,-0.445982328097315,-2.3004366035805046,0.008217813811162038,-0.02360699552754566,-0.01112871385155989,0.33333262405493713,0.3333334447417946,0.7142857142857143,0
120,28-2-2023_15:47:26:606882,paved,cons-acc-20,0.7530906508157469,0.9751532540814811,-1.8269827652936144,-0.008574470567427203,-0.0905409620994535,-0.025250193047714198,0.33333262405493713,0.3333334447417946,0.7142857142857143,0
121,28-2-2023_15:47:26:662825,paved,cons-acc-20,2.0232780918632467,0.9835284181662028,-3.066601457262429,0.0073057914283741685,-0.03300767784399568,-0.002751138265536749,0.33333262405493713,0.6666666385952433,0.8571428571428571,0
122,28-2-2023_15:47:26:710819,paved,cons-acc-20,1.0266760684070895,0.6866444025536139,-1.5686450522996969,-0.028945841771702487,0.03249605480788932,-0.005632466658476307,0.33333262405493713,0.6666666385952433,0.8571428571428571,0
123,28-2-2023_15:47:26:766814,paved,cons-acc-20,0.2899147344343591,0.4306906682737674,-1.8907643915146615,-0.05726383172441665,0.009320965149274638,-0.0028853233709732634,0.33333262405493713,0.3333334447417946,0.5714285714285714,0
124,28-2-2023_15:47:26:814812,paved,cons-acc-20,0.6678971874766773,-0.27676082381609396,-1.934202064863434,-0.06717391841579112,0.0456448103543506,-0.016998480457234334,0.33333262405493713,0.3333334447417946,0.5714285714285714,0
125,28-2-2023_15:47:26:870805,paved,cons-acc-20,1.418234218963752,-0.8492040113564812,-2.37614021280825,-0.0027976309551266537,-0.04841033216006502,-0.0019260031270594245,0.33333262405493713,0.500000125334519,0.7142857142857143,0
126,28-2-2023_15:47:26:918803,paved,cons-acc-20,-1.0287028562074805,-0.5464243189021654,-1.2808807339719577,-0.046973199510957866,0.12138409955211069,-0.0035864817423725305,0.33333262405493713,0.500000125334519,0.7142857142857143,0
127,28-2-2023_15:47:26:974785,paved,cons-acc-20,-0.11017768471494449,-0.3621402058084925,-3.3385963231822533,-0.03207240857006341,-0.006389351860275255,0.00487731025254067,0.4444452707746772,0.500000125334519,0.42857079749066884,0
128,28-2-2023_15:47:27:22784,paved,cons-acc-20,0.767555804430827,-0.7205865378417659,-4.482070604805602,-0.09966421761798738,0.07395663868964837,0.0002900774966731051,0.4444452707746772,0.500000125334519,0.42857079749066884,0
129,28-2-2023_15:47:27:78832,paved,cons-acc-20,1.0382879393126256,-1.1974658057294763,-3.0867044920533484,-0.053303916828115167,0.008882563260825302,-0.007264574305713533,0.2222221037769103,0.500000125334519,0.5714285714285714,0
130,28-2-2023_15:47:27:126771,paved,cons-acc-20,0.35470653593016255,-1.1834765508030962,-1.8054278640018684,-0.048038711532789886,0.010058606947740967,-0.011924102230908928,0.2222221037769103,0.500000125334519,0.5714285714285714,0
131,28-2-2023_15:47:27:182762,paved,cons-acc-20,0.3152970184723635,0.13361300151013644,-1.046217671721605,-0.008724242648776304,0.10878606477067022,-0.013488770555768689,0.11111158349888346,0.500000125334519,0.5714285714285714,0
132,28-2-2023_15:47:27:230759,paved,cons-acc-20,1.1758873571388935,0.24862536035198463,-0.4653863909650727,0.02829685553078784,0.0014779089941014817,0.0011983444983568858,0.11111158349888346,0.500000125334519,0.5714285714285714,0
133,28-2-2023_15:47:27:286747,paved,cons-acc-20,0.4753177961284659,0.07057020975024744,-3.067072491233414,-0.10019060931678184,0.07424088750376315,-0.01368139788816366,0.33333262405493713,0.3333334447417946,0.7142857142857143,0
134,28-2-2023_15:47:27:334790,paved,cons-acc-20,0.25981451356715596,-1.2274267026753913,-3.3097131536171607,-0.022517588311331882,0.046640012570242854,-0.004173034008252814,0.33333262405493713,0.3333334447417946,0.7142857142857143,0
135,28-2-2023_15:47:27:390733,paved,cons-acc-20,0.400665559888818,-1.0050642858602663,-2.487721744669062,0.014468546135942312,0.04753299213573928,0.008748818415688723,0.33333262405493713,0.3333334447417946,0.5714285714285714,0
136,28-2-2023_15:47:27:438739,paved,cons-acc-20,0.827556905166593,-1.3032949672969731,-1.9840816966287769,-0.012168413142249361,0.019499048807969283,0.006189264036896947,0.33333262405493713,0.3333334447417946,0.5714285714285714,0
137,28-2-2023_15:47:27:494722,paved,cons-acc-20,1.1766495585557712,-0.5423508952265461,-1.5943228427971408,0.017938172792524715,0.028193638266371855,0.009398231936500913,0.4444452707746772,0.3333334447417946,0.2857142857142857,0
138,28-2-2023_15:47:27:542715,paved,cons-acc-20,-0.13871476943865457,-0.21130545317380955,-1.4755622081246877,-0.00331568962413405,0.028490688768183225,0.005876667506965732,0.4444452707746772,0.3333334447417946,0.2857142857142857,0
139,28-2-2023_15:47:27:598716,paved,cons-acc-20,-0.8829346521702256,-0.79267359254242,0.12674578002733283,-0.013153162465624833,0.051578710372724414,0.005401686281972178,0.2222221037769103,0.0,0.5714285714285714,0
140,28-2-2023_15:47:27:646710,paved,cons-acc-20,-1.1815067784142488,-1.041021556466329,0.154946969820144,0.008315681384407182,0.028777970258703583,0.004711518274491076,0.2222221037769103,0.0,0.5714285714285714,0
141,28-2-2023_15:47:27:702699,paved,cons-acc-20,-0.6812827013435762,-1.3148209282634438,-0.896163989478395,0.03860490244002668,-0.04975197305555164,0.006425547936820674,0.11111158349888346,0.6666666385952433,0.7142857142857143,0
142,28-2-2023_15:47:27:750691,paved,cons-acc-20,-0.9641705699057672,0.23138406379687537,-0.5627532882331138,0.008999744792114368,-0.029249269518418608,0.002048203997209814,0.11111158349888346,0.6666666385952433,0.7142857142857143,0
143,28-2-2023_15:47:27:798697,paved,cons-acc-20,-1.0933330700942439,-0.7035634138657453,-2.330241757976448,-0.03202693590261875,-0.09200640572360594,0.023927761171468814,0.2222221037769103,0.500000125334519,0.5714285714285714,0
144,28-2-2023_15:47:27:854698,paved,cons-acc-20,-0.7394706516483966,-0.908746068385621,-2.7922026974481984,-0.022534403788341477,-0.020994445239397905,0.014293476027897873,0.2222221037769103,0.500000125334519,0.5714285714285714,0
145,28-2-2023_15:47:27:910727,paved,cons-acc-20,0.2513090618024736,-0.9330017306963261,-3.8024654447715336,-0.06281909684402581,0.0007873325430461306,-0.00521558369034472,0.11111158349888346,0.3333334447417946,0.2857142857142857,0
146,28-2-2023_15:47:27:961393,paved,cons-acc-20,-0.24491223968651404,-0.9618836599429748,-3.418441163306216,-0.03251262400748485,-0.015838047771866225,0.005037817460801423,0.11111158349888346,0.3333334447417946,0.2857142857142857,0
147,28-2-2023_15:47:28:12706,paved,cons-acc-20,-0.22860357682804047,0.4209683077783659,-0.49412005987450947,-0.025912056079721087,-0.03606407083247727,-0.00018669365209380163,0.4444452707746772,0.16666676414907033,0.42857079749066884,0
148,28-2-2023_15:47:28:60728,paved,cons-acc-20,0.4095262736481621,0.6179258601671896,-0.9682542651572486,-0.06119910259672394,-0.010998921969609797,0.004957619393194778,0.4444452707746772,0.16666676414907033,0.42857079749066884,0
149,28-2-2023_15:47:28:116717,paved,cons-acc-20,0.3995065459233111,0.7248922396189019,-0.7458603917429765,-0.06929475760320328,0.04180170070417351,0.003324172053994362,0.2222221037769103,0.16666676414907033,0.5714285714285714,0
150,28-2-2023_15:47:28:164669,paved,cons-acc-20,0.3421159471573674,0.7588626295165335,-0.4952747745812593,-0.11756360905041338,-0.04915417823615968,-0.010491081540601039,0.2222221037769103,0.16666676414907033,0.5714285714285714,0
151,28-2-2023_15:47:28:220656,paved,cons-acc-20,0.3258760414710666,0.08526913294336214,-1.6878620989220514,-0.11191328143949547,-0.008433217943858776,-0.015484019900534902,0.2222221037769103,0.500000125334519,0.5714285714285714,0
152,28-2-2023_15:47:28:268659,paved,cons-acc-20,0.14394765573841697,0.25084451650888084,-0.7281064186607458,-0.013696321490548516,-0.014591474939957196,0.006365710629499706,0.2222221037769103,0.500000125334519,0.5714285714285714,0
153,28-2-2023_15:47:28:324642,paved,cons-acc-20,-0.0633544182976874,-1.0087637207634919,-1.2403382004963124,-0.06394609937778789,0.049612178690889415,0.0002592125455330172,0.33333262405493713,0.500000125334519,0.42857079749066884,0
154,28-2-2023_15:47:28:372637,paved,cons-acc-20,-0.0405560293953662,-0.7953012783219324,-1.1423552864776731,-0.043702757142125265,-0.016353458388292934,0.012890512860258246,0.33333262405493713,0.500000125334519,0.42857079749066884,0
155,28-2-2023_15:47:28:428644,paved,cons-acc-20,-0.2628769898728258,-0.629992375411387,-0.7208680684535287,-0.03288999483948454,-0.009952279092737729,0.007933823626771593,0.33333262405493713,0.500000125334519,0.8571428571428571,0
156,28-2-2023_15:47:28:476631,paved,cons-acc-20,-0.6207577456412134,-0.8562226528840521,-0.06413585904094021,-0.0332907218559711,0.01047975476004014,0.006446258417951019,0.33333262405493713,0.500000125334519,0.8571428571428571,0
157,28-2-2023_15:47:28:534886,paved,cons-acc-20,-0.7937808708241724,1.3615760847673566,1.8378926886232445,-0.0102031592600294,-0.02215905874458358,0.00913075096636202,0.33333262405493713,0.16666676414907033,0.7142857142857143,0
158,28-2-2023_15:47:28:582900,paved,cons-acc-20,-0.8050574519127158,-0.004980240426578408,0.3328630578207912,-0.06501850879945203,-0.003188902314641303,-0.002526980242439745,0.33333262405493713,0.16666676414907033,0.7142857142857143,0
159,28-2-2023_15:47:28:630891,paved,cons-acc-20,0.38480263469695086,-0.7708022575089328,-0.5603049123413457,-0.05975551497873023,0.06917902520935475,0.002225963826424064,0.2222221037769103,0.3333334447417946,0.5714285714285714,0
160,28-2-2023_15:47:28:690511,paved,cons-acc-20,0.35128042767980355,-0.14403938090239898,-0.8935386002761014,-0.024314348621242543,0.04429082649234441,0.0015224337409424343,0.2222221037769103,0.3333334447417946,0.5714285714285714,0
161,28-2-2023_15:47:28:740947,paved,cons-acc-20,0.005732388302176206,0.2135494696278018,0.24417705838329207,0.023741484959564553,0.05711820027601937,0.005177764329329729,0.2222221037769103,0.500000125334519,0.7142857142857143,0
162,28-2-2023_15:47:28:788941,paved,cons-acc-20,-0.41562334720383737,0.7119109108989448,0.5409163209210704,0.03299767897106218,0.0769374850157399,-0.0013779281973288517,0.2222221037769103,0.500000125334519,0.7142857142857143,0
163,28-2-2023_15:47:28:844944,paved,cons-acc-20,0.15130015513220535,0.17350196402060958,-1.0336882540940993,-0.023369008069117743,-0.027565348160147274,0.0019042559795111507,0.11111158349888346,0.500000125334519,0.8571428571428571,0
164,28-2-2023_15:47:28:892938,paved,cons-acc-20,0.46424506266154203,-0.8589974391188347,-0.30468012224304575,-0.03736557530743152,0.00740327261410012,0.007782437480755469,0.11111158349888346,0.500000125334519,0.8571428571428571,0
165,28-2-2023_15:47:28:948874,paved,cons-acc-20,1.0031588758281889,-0.0015561196964452018,-1.8864337365591866,-0.0701259795439492,-0.056251224124244895,-0.0022721843379628045,0.2222221037769103,0.500000125334519,0.5714285714285714,0
166,28-2-2023_15:47:28:996917,paved,cons-acc-20,0.5275933233992205,-1.1308795824778217,-2.181968102763239,-0.02880201995394343,-0.00745151151164368,0.004080422326807571,0.2222221037769103,0.500000125334519,0.5714285714285714,0
167,28-2-2023_15:47:29:52858,paved,cons-acc-20,1.2292900397726978,-0.16195430829106172,-1.6702649335876902,-0.008215503309487733,0.0035074386975702584,-0.005814887639336172,0.4444452707746772,0.500000125334519,0.5714285714285714,0
168,28-2-2023_15:47:29:100853,paved,cons-acc-20,1.1382763614440783,-0.12303501450482832,-2.3593289904549,-0.016807344720776034,-0.006612270375792654,0.0005912159061268202,0.4444452707746772,0.500000125334519,0.5714285714285714,0
169,28-2-2023_15:47:29:156858,paved,cons-acc-20,0.8429435587904732,0.8421074152090123,-0.7093239082997895,-0.012054025287376539,0.06110674234378696,-0.004156325334546114,0.4444452707746772,0.16666676414907033,0.7142857142857143,0
170,28-2-2023_15:47:29:204840,paved,cons-acc-20,0.9525352994117054,1.0707043609455573,-0.11062909942052757,-0.028826389425765674,0.03563003439817336,-0.0029203049090884576,0.4444452707746772,0.16666676414907033,0.7142857142857143,0
171,28-2-2023_15:47:29:260836,paved,cons-acc-20,-0.23170524050474384,-0.13085571710098542,-0.19278504845147368,-0.0447605785950972,-0.009679351674360709,0.004747232648659287,0.2222221037769103,0.16666676414907033,0.5714285714285714,0
172,28-2-2023_15:47:29:308830,paved,cons-acc-20,-0.10255692196011373,0.2602098751245062,-0.09570473883138439,-0.026544285177387675,0.007877616012697004,-0.001522500629216451,0.2222221037769103,0.16666676414907033,0.5714285714285714,0
173,28-2-2023_15:47:29:364868,paved,cons-acc-20,-0.05095730821368982,-0.1611383046174681,-0.8954729279286585,-0.06648270550111243,0.01635480888677871,-0.006458119113147977,0.2222221037769103,0.3333334447417946,0.42857079749066884,0
174,28-2-2023_15:47:29:412818,paved,cons-acc-20,0.8642140598904983,0.2808518661937446,-1.1477198907316204,-0.05945219863722459,-0.010391872235606846,0.0017903374152506424,0.2222221037769103,0.3333334447417946,0.42857079749066884,0
175,28-2-2023_15:47:29:468805,paved,cons-acc-20,0.32372013970762403,0.24344911214344944,-0.5444235965019151,-0.08178505240075894,0.007113324600579396,0.00721351422544846,0.33333262405493713,0.500000125334519,0.5714285714285714,0
176,28-2-2023_15:47:29:516807,paved,cons-acc-20,-0.23445717992235093,-0.5631211862446366,-0.4847073334686676,-0.04437089928242904,-0.013779376693675384,0.011687969447041112,0.33333262405493713,0.500000125334519,0.5714285714285714,0
177,28-2-2023_15:47:29:572842,paved,cons-acc-20,-0.7221094554759929,-0.23154624519899808,-0.4569648313165828,-0.007543612293201364,0.008625794370765709,0.005938001557223186,0.33333262405493713,0.16666676414907033,0.42857079749066884,0
178,28-2-2023_15:47:29:624249,paved,cons-acc-20,-0.5511810339875102,0.01617713303099702,-1.0823757525572466,-0.02598890279571571,-0.024657206031893288,-0.004129774133983001,0.33333262405493713,0.16666676414907033,0.42857079749066884,0
179,28-2-2023_15:47:29:673858,paved,cons-acc-20,-0.6490098844528921,0.16036274493618197,-0.3897448429771093,-0.0041502119225869764,0.0136738454555339,-0.003618948261977245,0.0,0.500000125334519,0.7142857142857143,0
180,28-2-2023_15:47:29:729801,paved,cons-acc-20,-0.7715105938545865,0.2508212391524077,0.48506581503088053,-0.03753688785479865,0.013256312715548953,-0.0009709557223492576,0.0,0.500000125334519,0.7142857142857143,0
181,28-2-2023_15:47:29:777804,paved,cons-acc-20,-0.5367312712459573,-0.154834529532007,-0.4522403276564452,-0.02573951488006613,0.011334284808727148,0.012123643040420021,0.4444452707746772,0.3333334447417946,0.5714285714285714,0
182,28-2-2023_15:47:29:830607,paved,cons-acc-20,-0.16417609310347198,0.2031539270336138,-1.1050772413206382,-0.026283221573033925,0.026992544521545914,0.0036078433039777574,0.4444452707746772,0.3333334447417946,0.5714285714285714,0
183,28-2-2023_15:47:29:886600,paved,cons-acc-20,0.009166060533933262,-0.2498450526417842,-1.2687747338362108,-0.06722853965742465,0.04268352374864541,-0.004027791649776012,0.33333262405493713,0.6666666385952433,0.5714285714285714,0
184,28-2-2023_15:47:29:934609,paved,cons-acc-20,-0.508357394390125,-0.7712706470429076,-1.3904256447604688,-0.07622668951026053,0.040363430854417015,0.0015451019171619576,0.33333262405493713,0.6666666385952433,0.5714285714285714,0
185,28-2-2023_15:47:29:982588,paved,cons-acc-20,-0.1388486757268811,-0.4090451001634922,-1.2880872245519215,-0.08627092538617633,0.005617603050701039,-0.012503617973484297,0.4444452707746772,0.3333334447417946,0.5714285714285714,0
186,28-2-2023_15:47:30:38587,paved,cons-acc-20,-0.6897917517343318,-0.978942121442419,-1.8278890274849502,-0.09434273181996516,0.02039307044746492,-0.001654858085785426,0.4444452707746772,0.3333334447417946,0.5714285714285714,0
187,28-2-2023_15:47:30:86579,paved,cons-acc-20,-0.3046393539374268,-1.0116200719536252,-0.77504345128351,-0.06346928720180078,-0.0252013662291388,0.003226381470401477,0.33333262405493713,0.3333334447417946,0.42857079749066884,0
188,28-2-2023_15:47:30:144580,paved,cons-acc-20,-0.6202014598511687,-0.5860952239700525,-0.9294610957310198,-0.04521107940914172,0.01855979652494924,0.009641532014545519,0.33333262405493713,0.3333334447417946,0.42857079749066884,0
189,28-2-2023_15:47:30:192587,paved,cons-acc-20,-0.49247263879325004,-0.2312083243239958,-1.2926652958549345,-0.009536316466928284,-0.011102570074614501,0.001889901986040006,0.33333262405493713,0.6666666385952433,0.7142857142857143,0
190,28-2-2023_15:47:30:240580,paved,cons-acc-20,-0.8567978977799464,-0.4184462358531329,-0.08003728730726434,0.010992888501850366,0.019588771955310086,0.0030015925468681324,0.33333262405493713,0.6666666385952433,0.7142857142857143,0
191,28-2-2023_15:47:30:296572,paved,cons-acc-20,-0.38157892041723,-0.06828434054298277,-1.5139822212788219,-0.04594199335707737,0.031260238717714356,-0.0015780167140530014,0.4444452707746772,0.3333334447417946,0.5714285714285714,0
192,28-2-2023_15:47:30:352564,paved,cons-acc-20,-0.29790654307607145,0.2076679162995978,-0.5206404992008057,-0.03371357255148038,0.0016475397606451544,0.01068156344047327,0.4444452707746772,0.3333334447417946,0.5714285714285714,0
193,28-2-2023_15:47:30:400562,paved,cons-acc-20,-0.3781139292649335,0.2951713475337788,0.544090428562335,-0.047905008124158696,0.015451149432906337,-0.0023599974169244593,0.33333262405493713,0.3333334447417946,0.7142857142857143,0
194,28-2-2023_15:47:30:448562,paved,cons-acc-20,0.018019605805912442,-0.09671209746955656,-0.811829320021593,-0.0701298182118121,0.009502973387362078,-0.007623799376664734,0.33333262405493713,0.3333334447417946,0.7142857142857143,0
195,28-2-2023_15:47:30:504585,paved,cons-acc-20,-0.13180502829778434,-1.1663774063819632,-1.3482665820875002,-0.002369471408908169,0.003289171171425658,0.006174927137494203,0.2222221037769103,0.6666666385952433,0.42857079749066884,0
196,28-2-2023_15:47:30:560540,paved,cons-acc-20,-0.5995480135695336,-0.6804971434247422,-0.2955876747364754,0.04073625441109183,0.0017540146260401413,0.009216527799359582,0.2222221037769103,0.6666666385952433,0.42857079749066884,0
197,28-2-2023_15:47:30:608532,paved,cons-acc-20,-0.9569780626295179,-1.4510093421515629,0.4150086528541803,-0.00570631963627579,-0.009389101288075628,0.010591682811086082,0.2222221037769103,0.500000125334519,0.7142857142857143,0
198,28-2-2023_15:47:30:664564,paved,cons-acc-20,-0.7052214969905072,-1.5048777870833627,1.0676504914245504,0.005161667434646591,0.07801722946799222,0.009461444593100289,0.2222221037769103,0.500000125334519,0.7142857142857143,0
199,28-2-2023_15:47:30:712521,paved,cons-acc-20,-0.21993479884223732,-1.9128564530773242,0.8339244350251713,0.006296567281162174,0.01497732879797925,0.003067657343533343,0.33333262405493713,0.500000125334519,0.7142857142857143,0
200,28-2-2023_15:47:30:760514,paved,cons-acc-20,0.26644462438659605,-0.9829288109378743,-1.4296120245498167,-0.02611800928226251,0.019202317155974764,-0.015176360815495716,0.33333262405493713,0.500000125334519,0.7142857142857143,0
201,28-2-2023_15:47:30:816510,paved,cons-acc-20,-0.025710088396199815,-0.04691144320546459,-1.5361337251971345,0.007419783604631101,0.02025882480446759,-0.0060901606684503895,0.33333262405493713,0.500000125334519,0.7142857142857143,0
202,28-2-2023_15:47:30:872507,paved,cons-acc-20,0.01631848945224757,0.3764142472741029,-0.821642231626006,-0.015434382296881387,0.039663793593543814,0.008989496806687869,0.33333262405493713,0.500000125334519,0.7142857142857143,0
203,28-2-2023_15:47:30:920500,paved,cons-acc-20,0.05395335827204467,0.6510480981389709,-1.4730190026570333,-0.05263113577848898,0.00916514200577194,0.006093193971200744,0.33333262405493713,0.3333334447417946,0.42857079749066884,0
204,28-2-2023_15:47:30:968492,paved,cons-acc-20,-0.12992717531092415,0.47297539731354243,-1.3559881456883793,-0.017653186229484787,-0.054906560420564424,-0.00248565227094246,0.33333262405493713,0.3333334447417946,0.42857079749066884,0
205,28-2-2023_15:47:31:24483,paved,cons-acc-20,-0.3797165809999948,0.5992585076371391,-1.1558830778853262,-0.0014211233201242082,-0.018396643454410208,-0.008550443294905166,0.4444452707746772,0.3333334447417946,1.0,0
206,28-2-2023_15:47:31:72478,paved,cons-acc-20,0.3590634337680286,-0.04704736347081273,-2.6857547073903314,-0.00403789127291233,0.0018292425876072736,-0.00704920242341792,0.4444452707746772,0.3333334447417946,1.0,0
207,28-2-2023_15:47:31:128514,paved,cons-acc-20,0.21050991631736765,-0.8242416166493954,-2.159451433727726,-0.04322013250455391,0.03657884156532279,0.0007074027365132117,0.11111158349888346,0.500000125334519,0.2857142857142857,0
208,28-2-2023_15:47:31:184507,paved,cons-acc-20,0.028714925003192948,-0.6242050746328842,-0.8044384835881191,-0.038942144852741,0.006811306482714694,0.013571684445143773,0.11111158349888346,0.500000125334519,0.2857142857142857,0
209,28-2-2023_15:47:31:232503,paved,cons-acc-20,-0.3210464279511406,-0.5592876916622097,-1.6617637429891938,-0.038210572002698916,0.020552821442255807,-0.0013894954983572107,0.33333262405493713,0.3333334447417946,0.1428565117763831,0
210,28-2-2023_15:47:31:280452,paved,cons-acc-20,-0.6375189703828608,-0.7110901045361412,-1.1247071589672704,-0.007466678916347107,0.05046861892236537,-0.006413456023101027,0.33333262405493713,0.3333334447417946,0.1428565117763831,0
211,28-2-2023_15:47:31:336438,paved,cons-acc-20,-0.3361734870156274,-1.2036972923632356,-0.42836870740001876,-0.01215433513830891,-0.01824304734191194,-0.003678248836058844,0.4444452707746772,0.16666676414907033,0.5714285714285714,0
212,28-2-2023_15:47:31:384433,paved,cons-acc-20,-0.096456344799275,-0.6456712622410827,-1.9319443498887692,-0.04452162116558611,-0.007520016688896203,-0.014080721412676888,0.4444452707746772,0.16666676414907033,0.5714285714285714,0
213,28-2-2023_15:47:31:440426,paved,cons-acc-20,-0.2559451588481278,-0.9738815291438323,-2.424158729989311,-0.0725895550742431,0.02963897241183147,0.0032991417172952616,0.33333262405493713,0.3333334447417946,0.2857142857142857,0
214,28-2-2023_15:47:31:488420,paved,cons-acc-20,-0.8156859565037555,-0.6899640878274235,-0.970790060244686,-0.045029708514563255,0.049646666099239775,0.008604626028250344,0.33333262405493713,0.3333334447417946,0.2857142857142857,0
215,28-2-2023_15:47:31:544412,paved,cons-acc-20,-0.47760295300650546,-0.26625111053048284,-0.8025922589075634,-0.024454471334594097,0.01061691317094933,-0.00022718888638216528,0.2222221037769103,0.6666666385952433,0.42857079749066884,0
216,28-2-2023_15:47:31:592412,paved,cons-acc-20,0.5437955999615701,-0.8642086759722933,-1.8303117262561703,-0.004259333567026579,0.029575934414218193,-0.0028391305306457006,0.2222221037769103,0.6666666385952433,0.42857079749066884,0
217,28-2-2023_15:47:31:648402,paved,cons-acc-20,-0.18218306860484168,-1.4577049627141214,0.09878522338085105,0.004515270293394099,-0.007641322861220927,-0.0035393300789214135,0.2222221037769103,0.16666676414907033,0.7142857142857143,0
218,28-2-2023_15:47:31:704391,paved,cons-acc-20,0.13649401693291136,-1.0461612038300252,0.4953051471475691,-0.011788304002441876,0.053835256494690516,0.0048931437694657385,0.2222221037769103,0.16666676414907033,0.7142857142857143,0
219,28-2-2023_15:47:31:752385,paved,cons-acc-20,-0.04300150599204641,-1.1922265565945829,0.0701049076946188,0.008144191803648018,0.04978079125515347,0.005778978493641432,0.4444452707746772,0.500000125334519,0.2857142857142857,0
220,28-2-2023_15:47:31:800383,paved,cons-acc-20,-0.2835203459582132,-1.775516155650998,0.09807668152857865,0.0036894018734288407,-0.03351249116349975,0.0058995517650621936,0.4444452707746772,0.500000125334519,0.2857142857142857,0
221,28-2-2023_15:47:31:856423,paved,cons-acc-20,0.20804519671119498,-2.680579967669768,-0.4226193450219723,-0.07270496520818473,0.028624936435691736,-0.021124113953989606,0.4444452707746772,0.3333334447417946,0.7142857142857143,0
222,28-2-2023_15:47:31:904417,paved,cons-acc-20,0.9393760878481168,-2.128353499084052,-2.1447010496115406,-0.022005577166400933,-0.022697311279814197,-0.011094548111079214,0.4444452707746772,0.3333334447417946,0.7142857142857143,0
223,28-2-2023_15:47:31:960387,paved,cons-acc-20,-0.3545521213108096,-2.258786122814443,-2.5710296709300104,-0.019185346058757748,-0.028925760437087597,-0.007726622381598972,0.4444452707746772,0.3333334447417946,0.7142857142857143,0
224,28-2-2023_15:47:32:16358,paved,cons-acc-20,0.09397773008679261,-1.4892213839751576,-0.7404235315231837,-0.0001325762037930195,-0.059337403591166,0.0064941854596060715,0.4444452707746772,0.3333334447417946,0.7142857142857143,0
225,28-2-2023_15:47:32:64351,paved,cons-acc-20,-1.4969453442319176,-0.701785164638153,0.9828068456564176,-0.015181451458161245,0.03900304636486579,0.018522011420090575,0.11111158349888346,0.500000125334519,0.2857142857142857,0
226,28-2-2023_15:47:32:112346,paved,cons-acc-20,-1.0856525465449989,-0.1891046452298567,0.19198550968557992,-0.032333811737630246,0.016077911664406568,0.007702201731935887,0.11111158349888346,0.500000125334519,0.2857142857142857,0
227,28-2-2023_15:47:32:168335,paved,cons-acc-20,-0.518922980014624,-0.8092858515965348,0.32000399133761676,-0.043861789362166934,-0.06250192903954392,0.0017693447863891647,0.2222221037769103,0.500000125334519,0.5714285714285714,0
228,28-2-2023_15:47:32:216330,paved,cons-acc-20,-0.22828210503718233,-0.3148151493398518,-0.24294270107487131,-0.056351802634838445,0.035819759819539276,-0.000753576538180937,0.2222221037769103,0.500000125334519,0.5714285714285714,0
229,28-2-2023_15:47:32:272328,paved,cons-acc-20,-0.3790273112734358,-0.9440655816351458,0.6859109790815698,-0.015654243409782775,0.057389323015092066,0.011665969487096976,0.33333262405493713,0.6666666385952433,0.5714285714285714,0
230,28-2-2023_15:47:32:320328,paved,cons-acc-20,0.02691148504267954,-1.0701432529651183,0.22961857008487946,-0.015334041574497343,-0.04274288641199892,0.005046164926776241,0.33333262405493713,0.6666666385952433,0.5714285714285714,0
231,28-2-2023_15:47:32:376315,paved,cons-acc-20,0.5837218468613219,-1.0728237026516305,-1.105848469823975,-0.06791583124752261,0.017266577251363262,-0.008320828471003974,0.33333262405493713,0.16666676414907033,0.42857079749066884,0
232,28-2-2023_15:47:32:424304,paved,cons-acc-20,0.32920652194851646,-1.4905660999842756,0.24138425562146604,0.003664268011941113,0.047715038311441624,0.005587091962275201,0.33333262405493713,0.16666676414907033,0.42857079749066884,0
233,28-2-2023_15:47:32:480302,paved,cons-acc-20,0.9317779197436482,-0.967378952941922,-1.2880931924412442,0.004903987243285763,0.11431870735510474,0.001235981258725813,0.2222221037769103,0.500000125334519,0.8571428571428571,0
234,28-2-2023_15:47:32:528296,paved,cons-acc-20,0.6065246576580008,-0.001814222059965065,-2.206880224764371,-0.03656397476803512,0.054419858820205946,0.004904683846780667,0.2222221037769103,0.500000125334519,0.8571428571428571,0
235,28-2-2023_15:47:32:579593,paved,cons-acc-20,0.4395018525764151,0.022245508494176783,-1.5733775802074694,-0.05551977634864366,-0.009321024771457673,-0.0020003046274348025,0.33333262405493713,0.500000125334519,0.7142857142857143,0
236,28-2-2023_15:47:32:635652,paved,cons-acc-20,-0.004907426804918069,0.21485254287235628,-1.1623691067044986,-0.05474661604418745,0.04391022158127062,0.01160109812280893,0.33333262405493713,0.500000125334519,0.7142857142857143,0
237,28-2-2023_15:47:32:691947,paved,cons-acc-20,-0.4765967531300977,-1.1432055129230771,-1.3940748243334562,-0.06052354600178682,0.025542840821045954,-0.004704565046037251,0.2222221037769103,0.500000125334519,0.7142857142857143,0
238,28-2-2023_15:47:32:739953,paved,cons-acc-20,-0.7257971114391343,-1.430661279341727,-0.9169818477062491,-0.006412951062742242,0.01402900380153424,0.003086739676758582,0.2222221037769103,0.500000125334519,0.7142857142857143,0
239,28-2-2023_15:47:32:787947,paved,cons-acc-20,-0.4554492251232074,-0.7885299192694597,-0.29299790395684877,-0.015470900389814341,0.06571678206848149,0.010832869003851634,0.5555547292253228,0.6666666385952433,0.5714285714285714,0
240,28-2-2023_15:47:32:843938,paved,cons-acc-20,-0.2649898943183949,-0.9657657405278982,-0.3227851773635539,-0.036481127579985284,-0.009096788871705772,0.019625160661444888,0.5555547292253228,0.6666666385952433,0.5714285714285714,0
241,28-2-2023_15:47:32:891934,paved,cons-acc-20,-0.23887470293976304,-0.9145471397535329,0.8813803439104566,-0.008177558655309846,-0.004968235028572634,0.014794451749320871,0.33333262405493713,0.6666666385952433,0.7142857142857143,0
242,28-2-2023_15:47:32:943965,paved,cons-acc-20,-0.1263622458989831,-1.2110393843405542,-0.06211503206250646,0.004084391382441524,-0.026121756958195276,-0.0029246784485817707,0.33333262405493713,0.6666666385952433,0.7142857142857143,0
243,28-2-2023_15:47:32:999900,paved,cons-acc-20,0.25305106581925224,-1.035031138468981,0.2188660660110538,-0.007232444064818738,-0.053587110171596244,0.0020924168671625455,0.2222221037769103,0.500000125334519,0.42857079749066884,0
244,28-2-2023_15:47:33:52763,paved,cons-acc-20,0.9568295304057302,-0.3560211442648681,-0.640587131100006,-0.01829784143202674,0.04673254350803302,0.00483849509253967,0.2222221037769103,0.500000125334519,0.42857079749066884,0
245,28-2-2023_15:47:33:100757,paved,cons-acc-20,0.48074425342400434,-0.3950691683092161,-1.2159017236075191,-0.04863322613745798,0.025079733556860207,0.012305557088555706,0.33333262405493713,0.500000125334519,0.5714285714285714,0
246,28-2-2023_15:47:33:156754,paved,cons-acc-20,-0.48730919685595325,-1.0357357976489654,0.8069411865328318,-0.022075697216357756,0.03154844661392741,0.012159647512005224,0.33333262405493713,0.500000125334519,0.5714285714285714,0
247,28-2-2023_15:47:33:204790,paved,cons-acc-20,-0.0835794497621683,-0.9299920321491163,-0.2155660512954174,-0.02847144228029481,-0.011794887434961904,-0.0011560979118010722,0.4444452707746772,0.16666676414907033,0.2857142857142857,0
248,28-2-2023_15:47:33:260737,paved,cons-acc-20,-0.3296874604083,-0.4903517885285881,0.06023349720332444,-0.022910405398605622,-0.018332342926918377,-0.0008514904233572923,0.4444452707746772,0.16666676414907033,0.2857142857142857,0
249,28-2-2023_15:47:33:308730,paved,cons-acc-20,-0.09528270126363447,-0.06297051410725835,0.49602205751094064,-0.04056428586071002,0.005683176918844686,0.0026117030834125424,0.33333262405493713,0.3333334447417946,0.42857079749066884,0
250,28-2-2023_15:47:33:356737,paved,cons-acc-20,-0.061927075907180704,-0.3748684701141136,-1.1891783914651557,-0.08022600816561803,0.0015976451195030082,0.015626266509592385,0.33333262405493713,0.3333334447417946,0.42857079749066884,0
251,28-2-2023_15:47:33:412715,paved,cons-acc-20,-0.31519454548269427,-1.006424135443185,-0.5562751419740953,-0.07646110897790237,0.017504716587678576,0.01645875749191256,0.33333262405493713,0.500000125334519,0.5714285714285714,0
252,28-2-2023_15:47:33:468759,paved,cons-acc-20,-0.37701459398907233,-1.373531428035675,-0.7625368389671864,-0.05958643857294027,0.019418455772200856,0.013200504918521377,0.33333262405493713,0.500000125334519,0.5714285714285714,0
253,28-2-2023_15:47:33:516751,paved,cons-acc-20,-0.741503650977268,-1.6072869086682384,0.1643196530663651,-0.007078503108099814,0.0037568716706352784,0.0020236653477631195,0.4444452707746772,0.500000125334519,0.5714285714285714,0
254,28-2-2023_15:47:33:572702,paved,cons-acc-20,-0.510310768784294,-0.7967724823797,0.056812244710856066,-0.04938952420216273,-0.04654827060530599,-0.0024370738552492834,0.4444452707746772,0.500000125334519,0.5714285714285714,0
255,28-2-2023_15:47:33:620738,paved,cons-acc-20,-0.4632662649945258,-0.9523906843722438,-0.5336508425715744,-0.018649739064100668,-0.002124351384579226,0.008801083976116491,0.2222221037769103,0.500000125334519,0.42857079749066884,0
256,28-2-2023_15:47:33:668733,paved,cons-acc-20,0.14475255866457354,-0.9402333104641392,-0.18675235716762623,-0.0117214323647534,0.004367974305717689,0.010805956497726515,0.2222221037769103,0.500000125334519,0.42857079749066884,0
257,28-2-2023_15:47:33:724724,paved,cons-acc-20,0.33315261049636424,-1.5339325138050341,-1.4112377707566914,-0.047056307611998784,-0.0038745414776192224,0.013071200483436672,0.11111158349888346,0.6666666385952433,0.7142857142857143,0
258,28-2-2023_15:47:33:780675,paved,cons-acc-20,0.5891349056470755,-1.075258677078104,-1.5515232357656281,-0.02233756146606022,-0.015953236466756157,0.0030415838096486143,0.11111158349888346,0.6666666385952433,0.7142857142857143,0
259,28-2-2023_15:47:33:828662,paved,cons-acc-20,0.5767461786006557,-0.7895075764343519,-2.05343218828818,-0.0376596917799321,-0.000859416087982191,0.00568789454667646,0.33333262405493713,0.6666666385952433,0.5714285714285714,0
260,28-2-2023_15:47:33:876658,paved,cons-acc-20,0.18832429804028483,-0.7647521840569341,-0.7090470336602648,0.004353405341090542,0.0013661736307592053,0.013475234264515412,0.33333262405493713,0.6666666385952433,0.5714285714285714,0
261,28-2-2023_15:47:33:932652,paved,cons-acc-20,0.40349784375484654,-0.7764990451448197,-1.626375189997891,-0.011847836965592589,0.008958059072117571,0.014144433107211252,0.2222221037769103,0.6666666385952433,0.5714285714285714,0
262,28-2-2023_15:47:33:988663,paved,cons-acc-20,0.33528426967254243,-0.9230300502726534,-1.6661469153403876,-0.030097507343007954,-0.01447505656801897,0.014722929532814006,0.2222221037769103,0.6666666385952433,0.5714285714285714,0
263,28-2-2023_15:47:34:36654,paved,cons-acc-20,0.4131679249530157,-0.9110766154287168,-1.757796811164223,-0.06257011749103525,-0.014143588867131693,0.006072691354063336,0.2222221037769103,0.500000125334519,0.2857142857142857,0
264,28-2-2023_15:47:34:87479,paved,cons-acc-20,-0.523037788775787,-1.4292865496135998,-1.306929824434189,-0.0337680036389046,-0.02740915964667913,0.010420432359645907,0.2222221037769103,0.500000125334519,0.2857142857142857,0
265,28-2-2023_15:47:34:143534,paved,cons-acc-20,-0.1961911185996712,-0.7781540872294085,-0.7229262480672574,-0.005664359699643802,-0.04437358482384868,0.0028590157687537554,0.0,0.3333334447417946,0.8571428571428571,0
266,28-2-2023_15:47:34:191480,paved,cons-acc-20,-0.138972892544368,-0.6153341109097246,-1.3777112219864662,0.0009678663796463078,0.01134884148839796,0.003150130905548924,0.0,0.3333334447417946,0.8571428571428571,0
267,28-2-2023_15:47:34:247498,paved,cons-acc-20,-0.36993254959500516,-0.3043985677085074,-0.7064409810024744,0.011657251460789345,-0.02388407546486543,0.017399078727908707,0.2222221037769103,0.500000125334519,0.42857079749066884,0
268,28-2-2023_15:47:34:295510,paved,cons-acc-20,-0.6290599563889039,-0.3919369293461892,-0.816846136194543,-0.036437338141146865,-0.03147531895661755,0.015815838727286813,0.2222221037769103,0.500000125334519,0.42857079749066884,0
269,28-2-2023_15:47:34:343485,paved,cons-acc-20,-0.47622779946966487,-1.0525403111658513,-0.32472913576328727,-0.02062077243071496,0.03741730691222306,0.009977486188618243,0.4444452707746772,0.6666666385952433,0.2857142857142857,0
270,28-2-2023_15:47:34:399502,paved,cons-acc-20,-0.4087755294653145,-0.44024630167338485,-0.9051925376419687,-0.013624950327455702,-0.014066723053485289,0.0030640541738101677,0.4444452707746772,0.6666666385952433,0.2857142857142857,0
271,28-2-2023_15:47:34:455451,paved,cons-acc-20,0.44098081176516246,-0.6185989790504145,-0.7235265696511537,-0.012735619660614173,-0.01382031097753783,0.003926541990726695,0.11111158349888346,0.3333334447417946,0.5714285714285714,0
272,28-2-2023_15:47:34:503491,paved,cons-acc-20,0.11012136159425528,-0.12067535814762986,-0.8344974857971071,-0.04220987141237543,0.017701227256881252,0.01323755213159072,0.11111158349888346,0.3333334447417946,0.5714285714285714,0
273,28-2-2023_15:47:34:559437,paved,cons-acc-20,-0.035311948703616036,-0.7066444863905339,-0.42643115787943847,-0.02560615030287543,0.025718012781399777,0.021493991520206444,0.33333262405493713,0.16666676414907033,0.42857079749066884,0
274,28-2-2023_15:47:34:607434,paved,cons-acc-20,0.27598220954750047,-0.6650288822436862,-0.5348182172451482,-0.06630604051071952,-0.020832581141190937,0.00799263267503675,0.33333262405493713,0.16666676414907033,0.42857079749066884,0
275,28-2-2023_15:47:34:663443,paved,cons-acc-20,-0.0415003564813069,-1.4469309549262168,-0.9455749579522545,-0.05046364768836201,0.010103608577097318,-0.0022016008437098153,0.33333262405493713,0.500000125334519,0.8571428571428571,0
276,28-2-2023_15:47:34:711415,paved,cons-acc-20,0.2560012846828984,-1.0861972494953593,-0.30594873916975374,-0.03301943638455296,-0.02709510843419514,-0.004386593268934903,0.33333262405493713,0.500000125334519,0.8571428571428571,0
277,28-2-2023_15:47:34:767413,paved,cons-acc-20,0.15736448323267932,-1.7862900388057175,-1.2469992220012573,-0.042767005263156466,-0.01776960570255494,-0.0008749511060917822,0.4444452707746772,0.3333334447417946,0.1428565117763831,0
278,28-2-2023_15:47:34:815413,paved,cons-acc-20,0.503149390101147,-0.5356169948354816,-1.9757424468193108,-0.055107295787411595,-0.027427905329303226,0.004018943470894902,0.4444452707746772,0.3333334447417946,0.1428565117763831,0
279,28-2-2023_15:47:34:863396,paved,cons-acc-20,0.24993375527444672,-0.7865866412659037,-2.3985065313994776,-0.0875952695239631,0.010170000086850768,0.010084557306155583,0.4444452707746772,0.500000125334519,0.2857142857142857,0
280,28-2-2023_15:47:34:919393,paved,cons-acc-20,0.3085227685772154,-0.2428624793596269,-1.2448709294523945,-0.08136028385482348,-0.0015475013719808747,0.007522253875292064,0.4444452707746772,0.500000125334519,0.2857142857142857,0
281,28-2-2023_15:47:34:975429,paved,cons-acc-20,-0.11791961987057809,-0.9020814048804334,-0.9888291265948617,-0.08462327344575449,-0.0013023899731424548,0.00047068967155949014,0.33333262405493713,0.500000125334519,0.5714285714285714,0
282,28-2-2023_15:47:35:23425,paved,cons-acc-20,-0.013724065009784611,0.0010418167523501554,-0.6536599884477083,-0.03935348633713478,0.007409250186221114,-0.003489238774833505,0.33333262405493713,0.500000125334519,0.5714285714285714,0
283,28-2-2023_15:47:35:79416,paved,cons-acc-20,-0.24174942210318523,-0.4926163037971379,-0.7183494857354911,-0.04930585836964335,0.024780292076077643,0.007563311565006168,0.5555547292253228,0.500000125334519,0.2857142857142857,0
284,28-2-2023_15:47:35:127411,paved,cons-acc-20,0.08078483419476057,-0.4772827077931491,0.6198714715424212,-0.053303019576984245,0.06173452100236708,0.010744085805941626,0.5555547292253228,0.500000125334519,0.2857142857142857,0
285,28-2-2023_15:47:35:175406,paved,cons-acc-20,-0.34638084670856445,-0.6970220169876471,0.06136616049695953,-0.06992637637842813,0.023599848473564625,0.005974825283724174,0.2222221037769103,0.16666676414907033,0.7142857142857143,0
286,28-2-2023_15:47:35:231358,paved,cons-acc-20,-0.001920697948818162,-0.7341974956937927,0.3243416373054984,-0.037820544493144356,0.005752930516383942,0.00012795334309757302,0.2222221037769103,0.16666676414907033,0.7142857142857143,0
287,28-2-2023_15:47:35:287342,paved,cons-acc-20,0.2666550334910868,-0.8631312936135664,-0.3051315915033716,-0.03695620861677674,0.01805475007488031,-0.0011278655690122477,0.4444452707746772,0.500000125334519,0.5714285714285714,0
288,28-2-2023_15:47:35:335350,paved,cons-acc-20,0.4179152084633173,-0.6408500627975846,0.07351459551474626,0.015051032391790002,0.0008173344693565843,0.0025188963778562754,0.4444452707746772,0.500000125334519,0.5714285714285714,0
289,28-2-2023_15:47:35:391330,paved,cons-acc-20,0.15486969966202246,-0.34357953331685126,-0.25229342311009434,-0.02744414113422871,-0.0011514466727175704,0.01011151793491915,0.5555547292253228,0.16666676414907033,0.7142857142857143,0
290,28-2-2023_15:47:35:439325,paved,cons-acc-20,0.10234351288154947,-0.8499297251317488,-0.6617187274964993,-0.0255632201818981,-0.015020580728658587,0.014430016474608386,0.5555547292253228,0.16666676414907033,0.7142857142857143,0
291,28-2-2023_15:47:35:495325,paved,cons-acc-20,-0.585370328005961,-0.9061353565499233,-1.1110381606536741,-0.06224938649319551,0.022643042111957345,0.007389449700504981,0.4444452707746772,0.500000125334519,0.42857079749066884,0
292,28-2-2023_15:47:35:543315,paved,cons-acc-20,-0.8809655846937559,-0.9974225702516726,-0.27467518739562613,-0.02169582870467176,-0.010102911727592302,0.0067941272177516505,0.4444452707746772,0.500000125334519,0.42857079749066884,0
293,28-2-2023_15:47:35:599306,paved,cons-acc-20,-0.2805488430743057,-0.6616468688041379,-1.9142753667861607,-0.0392757263340717,-0.035518430926725734,-0.002427168869977219,0.33333262405493713,0.6666666385952433,0.2857142857142857,0
294,28-2-2023_15:47:35:647302,paved,cons-acc-20,-0.15742438417957644,-0.9215807019220108,-2.155167436137105,0.0025804538223332465,0.013943374797534429,0.010219528546663267,0.33333262405493713,0.6666666385952433,0.2857142857142857,0
295,28-2-2023_15:47:35:695297,paved,cons-acc-20,0.16573711813567232,-0.41223205526691464,-2.191812568190422,-0.02731641085602162,0.0031560269759825857,0.01623518450999598,0.4444452707746772,0.3333334447417946,0.42857079749066884,0
296,28-2-2023_15:47:35:751341,paved,cons-acc-20,0.226824180371304,-1.129181847532887,-1.5545798200245058,-0.03965925195655213,0.07092628541355009,0.009410743159265919,0.4444452707746772,0.3333334447417946,0.42857079749066884,0
297,28-2-2023_15:47:35:807276,paved,cons-acc-20,0.16951238837303548,-0.9422847810564237,-0.41163603577954233,-0.026856845914305573,0.04068493745176486,-0.002786738553047414,0.2222221037769103,0.6666666385952433,0.42857079749066884,0
298,28-2-2023_15:47:35:855271,paved,cons-acc-20,-0.10642996925029932,-1.1162145267400896,-1.1252110003737306,-0.01204604544498203,0.019942594890634137,-0.001222169337520757,0.2222221037769103,0.6666666385952433,0.42857079749066884,0
299,28-2-2023_15:47:35:911261,paved,cons-acc-20,0.399438003374315,0.07476551988967417,-0.44964451461844746,0.01006982516638204,0.03634683519489525,-0.003527024339789379,0.2222221037769103,0.6666666385952433,0.7142857142857143,0
300,28-2-2023_15:47:35:959317,paved,cons-acc-20,-0.06973691564375484,-0.2540761872719746,-1.3828556707561792,-0.019342416553454235,-0.010667916056057276,0.00949641773218729,0.2222221037769103,0.6666666385952433,0.7142857142857143,0
301,28-2-2023_15:47:36:7256,paved,cons-acc-20,0.5697146472004717,0.2657490405524106,-0.5612005547422566,0.0011566069570268685,0.01896557003780273,0.006263417892608893,0.33333262405493713,0.3333334447417946,0.42857079749066884,0
302,28-2-2023_15:47:36:63245,paved,cons-acc-20,0.275482423467164,0.8698336773931721,-0.5831591891919862,-0.031880945164149785,0.005489309629890766,0.010484478284117936,0.33333262405493713,0.3333334447417946,0.42857079749066884,0
303,28-2-2023_15:47:36:119237,paved,cons-acc-20,0.2876107007215334,0.9349077289114581,0.01770729668278148,-0.02736341298895522,0.009495192291272403,0.004295640853293436,0.33333262405493713,0.500000125334519,0.2857142857142857,0
304,28-2-2023_15:47:36:167229,paved,cons-acc-20,0.4984644668912279,0.8021169598536226,-0.6352705856462537,-0.060722694762329714,0.03598480756256508,0.0006254224858709715,0.33333262405493713,0.500000125334519,0.2857142857142857,0
305,28-2-2023_15:47:36:215220,paved,cons-acc-20,-0.16817682147008894,-0.41508633426734987,-0.46713046027915905,-0.02264964244512257,0.07340612981370823,0.011421477778840668,0.2222221037769103,0.3333334447417946,0.42857079749066884,0
306,28-2-2023_15:47:36:271218,paved,cons-acc-20,-0.24693150326902036,-0.4315557728420819,-0.5382767833320844,-0.022789611301022243,0.032428181291460384,0.01486990066621054,0.2222221037769103,0.3333334447417946,0.42857079749066884,0
307,28-2-2023_15:47:36:319210,paved,cons-acc-20,-0.7621364856179245,-0.5119320683502514,-0.2789820763554216,-0.01863186366349155,0.04135447586957377,0.0018766887874816385,0.4444452707746772,0.3333334447417946,0.5714285714285714,0
308,28-2-2023_15:47:36:377984,paved,cons-acc-20,-0.5177857705996242,-0.28857559350470097,0.6858404851969567,-0.03596001374070899,-0.001960223068402406,-0.010092697014157387,0.4444452707746772,0.3333334447417946,0.5714285714285714,0
309,28-2-2023_15:47:36:426005,paved,cons-acc-20,-0.5189535600969885,-1.1501839967398508,0.2818413952930627,-0.022634013586293127,0.0015626930519748528,-0.005621296290355922,0.33333262405493713,0.500000125334519,0.5714285714285714,0
310,28-2-2023_15:47:36:473986,paved,cons-acc-20,0.2785368064636832,-0.7956735173882422,-0.3804694642245678,-0.03877893966329809,-0.002288057332478801,-0.004473580652931103,0.33333262405493713,0.500000125334519,0.5714285714285714,0
311,28-2-2023_15:47:36:533619,paved,cons-acc-20,0.001390228242487801,-0.60818457340386,-1.0868650457398217,-0.05229355631677967,-0.018347554211659955,0.009709233785945286,0.5555547292253228,0.3333334447417946,0.42857079749066884,0
312,28-2-2023_15:47:36:581023,paved,cons-acc-20,0.08830964167965433,-0.34371584798559,-0.8504070782134154,-0.031166929445554225,-0.019205878919927227,0.011818472218729354,0.5555547292253228,0.3333334447417946,0.42857079749066884,0
313,28-2-2023_15:47:36:637013,paved,cons-acc-20,0.003940177707058304,0.372600982911579,-1.0130146667785513,-0.0569021508541403,0.018252826202433216,0.005451154926076097,0.33333262405493713,0.6666666385952433,0.42857079749066884,0
314,28-2-2023_15:47:36:685019,paved,cons-acc-20,-0.15073227138159845,-0.2432688493479766,-1.3325141321854141,-0.05357135419590981,0.030245907840328004,-0.004116367302444755,0.33333262405493713,0.6666666385952433,0.42857079749066884,0
315,28-2-2023_15:47:36:741009,paved,cons-acc-20,0.15120996467124576,0.4148006462984369,0.17065158592231877,-0.009075424652469723,-0.022685200427364036,-0.0036144462512625554,0.2222221037769103,0.500000125334519,0.42857079749066884,0
316,28-2-2023_15:47:36:789050,paved,cons-acc-20,-0.12818383810925948,-0.2905754220924697,-1.2558899016129739,-0.05972103102049502,0.0221210612407869,-0.005745475456697038,0.2222221037769103,0.500000125334519,0.42857079749066884,0
317,28-2-2023_15:47:36:844986,paved,cons-acc-20,0.23282530051635975,-0.3290919220714709,-1.3183272904295333,-0.054103014211197835,0.0019697069099476154,0.004682990126848375,0.33333262405493713,0.500000125334519,0.7142857142857143,0
318,28-2-2023_15:47:36:892977,paved,cons-acc-20,0.06265809735862224,-0.15957230255990645,-1.7061257040032185,-0.05708782030598147,0.10394677101209863,-0.00030584458307732817,0.33333262405493713,0.500000125334519,0.7142857142857143,0
319,28-2-2023_15:47:36:948975,paved,cons-acc-20,-0.5485787048010005,-0.1781560557596416,-0.11148498655698846,-0.01137897445835652,0.05632117736075494,-0.0044575580249547825,0.33333262405493713,0.3333334447417946,0.42857079749066884,0
320,28-2-2023_15:47:36:996965,paved,cons-acc-20,-0.49521622448348773,0.2977913255400482,0.5122921954793072,-0.0007971966255481619,0.014888944729764216,-0.009035718949531826,0.33333262405493713,0.3333334447417946,0.42857079749066884,0
321,28-2-2023_15:47:37:52970,paved,cons-acc-20,-0.20291085547299442,-0.33758762041805884,-0.7696091483459269,-0.006502326583614019,-0.015924479230426516,-0.004205024458465835,0.2222221037769103,0.3333334447417946,0.7142857142857143,0
322,28-2-2023_15:47:37:100956,paved,cons-acc-20,-0.29869026801014553,-0.7954912367188212,-0.6981169137866239,0.005037269925328774,-0.008025654339169817,0.0029007056627803106,0.2222221037769103,0.3333334447417946,0.7142857142857143,0
323,28-2-2023_15:47:37:148945,paved,cons-acc-20,0.6857242191444605,0.4002859000644339,-1.3648980550851917,-0.06564282640164328,0.012050003555759498,-0.0024963501961191084,0.33333262405493713,0.500000125334519,0.42857079749066884,0
324,28-2-2023_15:47:37:204973,paved,cons-acc-20,0.20741654959488787,-0.038775753516640366,-1.3296391320293524,-0.06251067167402914,-0.04067001657022381,0.006127825205493915,0.33333262405493713,0.500000125334519,0.42857079749066884,0
325,28-2-2023_15:47:37:260930,paved,cons-acc-20,0.5461547334209473,0.3787228797046685,-1.102744727359346,-0.016740848695726,-0.03629364638163283,-0.0022971333011642323,0.33333262405493713,0.3333334447417946,0.42857079749066884,0
326,28-2-2023_15:47:37:308926,paved,cons-acc-20,0.6525132119325716,0.038135227856912535,-1.1520756992109307,-0.00883054934044707,0.034527754124483855,0.004072044471135051,0.33333262405493713,0.3333334447417946,0.42857079749066884,0
327,28-2-2023_15:47:37:364918,paved,cons-acc-20,0.01729636474863616,0.2066093586513297,-2.000809672531676,-0.042120568934375435,0.05591409121633248,0.009394836011434371,0.5555547292253228,0.16666676414907033,0.42857079749066884,0
328,28-2-2023_15:47:37:412913,paved,cons-acc-20,0.5741182466738479,-0.222317465237465,-1.849561337233475,-0.06783397323811288,-0.023715307619622164,-0.0004925126410739705,0.5555547292253228,0.16666676414907033,0.42857079749066884,0
329,28-2-2023_15:47:37:468904,paved,cons-acc-20,0.32911388981189493,-0.5574297908782682,-2.03753916036918,-0.08301576535049923,0.05041901837010035,-0.010180715028430948,0.4444452707746772,0.500000125334519,0.7142857142857143,0
330,28-2-2023_15:47:37:516895,paved,cons-acc-20,-0.034446650389617084,-0.6342171871439155,-0.344640429277401,-0.017716105076433092,0.007896068520755271,-0.00936554536700555,0.4444452707746772,0.500000125334519,0.7142857142857143,0
331,28-2-2023_15:47:37:572890,paved,cons-acc-20,-0.04338097631242453,-0.31391961040234523,-1.0608109842845557,-0.049766219729823646,-0.03404173045034404,-0.005730898566821146,0.4444452707746772,0.6666666385952433,0.5714285714285714,0
332,28-2-2023_15:47:37:620888,paved,cons-acc-20,-0.05252887014004283,-0.8615363235035947,-1.9893319338894462,-0.0804114117248542,-0.03714434795134913,-0.007694408289883033,0.4444452707746772,0.6666666385952433,0.5714285714285714,0
333,28-2-2023_15:47:37:676879,paved,cons-acc-20,0.1915999803841711,-0.5231894559163848,-1.1433562625390552,-0.054978042638684825,-0.006168487267233968,0.0029672001042790027,0.4444452707746772,0.3333334447417946,0.8571428571428571,0
334,28-2-2023_15:47:37:724880,paved,cons-acc-20,-0.41475583714118963,-0.8979880516087171,-1.6311643072956683,-0.06178724697886433,-0.002996239964761427,0.006370475756281431,0.4444452707746772,0.3333334447417946,0.8571428571428571,0
335,28-2-2023_15:47:37:780871,paved,cons-acc-20,-0.367629559683742,-0.9037245677647202,-1.5258757182982592,-0.01933705832968307,-0.007306652478222805,0.006275066209432022,0.4444452707746772,0.6666666385952433,0.5714285714285714,0
336,28-2-2023_15:47:37:828860,paved,cons-acc-20,-0.30124058911616863,-0.7279622281494696,-2.0687598408864756,-0.06248498406343351,-0.029611737469196542,-0.0018939101887227522,0.4444452707746772,0.6666666385952433,0.5714285714285714,0
337,28-2-2023_15:47:37:884854,paved,cons-acc-20,0.18351328946358303,-0.45245652803364333,-2.9732049316023894,-0.05427773417062785,-0.01814093530989261,-0.0032219253218809395,0.4444452707746772,0.6666666385952433,0.5714285714285714,0
338,28-2-2023_15:47:37:932856,paved,cons-acc-20,-0.3314717323705282,-0.48184302170093707,-1.524252450393909,-0.009335226990201388,0.08710808231760168,0.0014619320110221506,0.4444452707746772,0.6666666385952433,0.5714285714285714,0
339,28-2-2023_15:47:37:980847,paved,cons-acc-20,0.06507805168819225,-0.2085126385094372,-1.220739882154636,0.0019749106190379215,0.03473355355361958,0.0016196516660306939,0.5555547292253228,0.3333334447417946,0.42857079749066884,0
340,28-2-2023_15:47:38:36839,paved,cons-acc-20,-0.09080344750449215,-0.5166546927179544,-1.57766065217473,-0.015584914043265077,0.05950577093879901,0.0018495036970422154,0.5555547292253228,0.3333334447417946,0.42857079749066884,0
341,28-2-2023_15:47:38:94156,paved,cons-acc-20,-0.35986479314930164,-0.8999049508567006,-0.2611429231993925,-0.02339026547594542,0.07055779881242655,-0.004972021274637993,0.2222221037769103,0.6666666385952433,0.2857142857142857,0
342,28-2-2023_15:47:38:136888,paved,cons-acc-20,-0.3245530107264294,0.024559999630060503,0.9079090542938653,-0.027102872605678136,0.004010238904585586,-0.0035479950237643117,0.2222221037769103,0.6666666385952433,0.2857142857142857,0
343,28-2-2023_15:47:38:192908,paved,cons-acc-20,-0.9503052369099585,-0.5713662307004507,-0.3799917009601783,-0.035708218381434675,0.01576074180510103,0.0036520054140561546,0.5555547292253228,0.6666666385952433,0.42857079749066884,0
344,28-2-2023_15:47:38:244920,paved,cons-acc-20,-0.38714819908042497,-0.19926631530099004,0.1863549922167187,-0.024225095695184003,-0.008397052304867966,0.012437803577573611,0.5555547292253228,0.6666666385952433,0.42857079749066884,0
345,28-2-2023_15:47:38:300945,paved,cons-acc-20,0.388934375729757,-0.23315387902086498,-0.2538771892298124,-0.06293581595255937,0.04188820599867661,0.003182668905050652,0.2222221037769103,0.6666666385952433,0.42857079749066884,0
346,28-2-2023_15:47:38:348928,paved,cons-acc-20,-0.010244828426336283,-0.5079823323941461,-1.1228819398288066,-0.029356539814983602,0.04323457668852863,-0.0029323364387047893,0.2222221037769103,0.6666666385952433,0.42857079749066884,0
347,28-2-2023_15:47:38:400995,paved,cons-acc-20,-0.2457560775792917,0.33168825821412573,-0.986373532846646,-0.007409237840674401,-0.027046155287196207,-0.0060470925799467196,0.33333262405493713,0.6666666385952433,0.5714285714285714,0
348,28-2-2023_15:47:38:452073,paved,cons-acc-20,0.23965804516091777,0.6493930024339851,-2.235778178738295,-0.06011843202128532,-0.004032446025704583,-0.00921570464022988,0.33333262405493713,0.6666666385952433,0.5714285714285714,0
349,28-2-2023_15:47:38:508079,paved,cons-acc-20,0.14642521248171264,0.30485701052168995,-1.2023364008237651,-0.031014228326538804,0.011418489868302057,0.006347931625181618,0.33333262405493713,0.500000125334519,0.5714285714285714,0
350,28-2-2023_15:47:38:559156,paved,cons-acc-20,0.007994344859794583,-0.12487416462073608,-0.7670982635483035,-0.06425423474719263,0.07184755152765306,0.0009608015997512945,0.33333262405493713,0.500000125334519,0.5714285714285714,0
351,28-2-2023_15:47:38:607154,paved,cons-acc-20,0.12757528395191656,-0.03512935881433654,-1.1850539610665345,-0.0680612496551222,0.03610973970295032,-0.0017326443797515377,0.33333262405493713,0.6666666385952433,0.5714285714285714,0
352,28-2-2023_15:47:38:663180,paved,cons-acc-20,-0.18201656319591905,-0.0505291614377223,-0.8643066489410007,-0.026022195500295768,0.026401923603734653,-0.006882464952339259,0.33333262405493713,0.6666666385952433,0.5714285714285714,0
353,28-2-2023_15:47:38:719144,paved,cons-acc-20,0.4597155771293221,-0.04195719529658872,-0.014232693869138946,0.015368370754269646,0.025060470336708253,-0.0038357419184990955,0.33333262405493713,0.3333334447417946,0.42857079749066884,0
354,28-2-2023_15:47:38:767178,paved,cons-acc-20,-0.2923133564032675,-0.4773570364418112,-1.1394181020427778,0.0009585944379353218,0.024043930540094065,0.005147388366781352,0.33333262405493713,0.3333334447417946,0.42857079749066884,0
355,28-2-2023_15:47:38:815143,paved,cons-acc-20,0.2116628637572484,-0.9995763924291698,-1.317269864396387,0.0007098438713561009,0.03272807368688484,0.007102582435613203,0.33333262405493713,0.3333334447417946,0.5714285714285714,0
356,28-2-2023_15:47:38:871164,paved,cons-acc-20,-0.2461072659775136,-1.1672663467816022,-0.05872360770464091,-0.016723674416369173,0.048333520752873324,0.0017448825848530207,0.33333262405493713,0.3333334447417946,0.5714285714285714,0
357,28-2-2023_15:47:38:919159,paved,cons-acc-20,0.09370665512147869,-0.9426339945801387,-1.9114484619375318,-0.04317154686186925,-0.0021917263786319016,-0.010313847314268789,0.33333262405493713,0.6666666385952433,0.42857079749066884,0
358,28-2-2023_15:47:38:974772,paved,cons-acc-20,0.2894820436124622,-0.88011725025666,-2.895403421306319,-0.042628401730952656,-0.002996326102377047,-0.00675690400764629,0.33333262405493713,0.6666666385952433,0.42857079749066884,0
359,28-2-2023_15:47:39:26142,paved,cons-acc-20,-0.1686773922914126,-0.5671697024926623,-1.9485979156968924,-0.029632578736921093,0.014067134977252533,-0.0025553499152512387,0.11111158349888346,0.500000125334519,0.5714285714285714,0
360,28-2-2023_15:47:39:74130,paved,cons-acc-20,-0.20925359564622983,0.14071632504877907,-2.7316174583079578,-0.05212859847618059,-0.022155815183696366,0.0071693586156105936,0.11111158349888346,0.500000125334519,0.5714285714285714,0
361,28-2-2023_15:47:39:130116,paved,cons-acc-20,-0.8762978288914066,0.07693135986107702,-2.009841969254873,-0.05686674926722876,2.5254808528017703e-06,0.001413526389845137,0.33333262405493713,0.6666666385952433,0.5714285714285714,0
362,28-2-2023_15:47:39:182133,paved,cons-acc-20,-0.42630857430884883,-0.19275207905070807,-0.7061000663138401,-0.030155017009367097,0.006816069187126228,-0.004941532536698623,0.33333262405493713,0.6666666385952433,0.5714285714285714,0
363,28-2-2023_15:47:39:230193,paved,cons-acc-20,0.14414804846570994,-0.20672467281526938,-1.0492178052726668,-0.05568813003162969,-0.019800321693771265,-0.008844457851140543,0.33333262405493713,0.6666666385952433,0.7142857142857143,0
364,28-2-2023_15:47:39:286140,paved,cons-acc-20,-0.3261432285947111,-0.23500796458804654,-1.9678328575877848,-0.02029285231101889,-0.01085620128184717,-0.00201812131051656,0.33333262405493713,0.6666666385952433,0.7142857142857143,0
365,28-2-2023_15:47:39:334148,paved,cons-acc-20,-0.2417944580125639,-0.1783623424835968,-0.7879410689051531,-0.007443049563118044,-0.06596721604095783,0.01707869939093752,0.4444452707746772,0.3333334447417946,0.7142857142857143,0
366,28-2-2023_15:47:39:391690,paved,cons-acc-20,-0.020613205585134353,-0.11513965984384876,-1.5347643138806566,-0.08403928542476508,0.042405232483096675,-0.0058723146627031805,0.4444452707746772,0.3333334447417946,0.7142857142857143,0
367,28-2-2023_15:47:39:439700,paved,cons-acc-20,-0.5092835485190916,-0.09792062719485756,-1.905332650806173,-0.08358815878130334,0.06465626437503562,-0.007565005970036618,0.33333262405493713,0.500000125334519,0.5714285714285714,0
368,28-2-2023_15:47:39:487694,paved,cons-acc-20,-0.4530754560306529,-0.19035110296095023,-0.6771502503130173,-0.024829760812500046,0.030673406641585174,-0.012024987109484159,0.33333262405493713,0.500000125334519,0.5714285714285714,0
369,28-2-2023_15:47:39:548140,paved,cons-acc-20,0.2972900525978991,0.22973675920801603,-0.9602097409583427,-0.03722935507045696,-0.011507824787589119,-0.011930639384232885,0.33333262405493713,0.0,0.5714285714285714,0
370,28-2-2023_15:47:39:595566,paved,cons-acc-20,0.3180462616374516,0.9780120483844458,-0.7713752550870967,-0.03219280714150245,0.030272651983555596,0.005436257209618458,0.33333262405493713,0.0,0.5714285714285714,0
371,28-2-2023_15:47:39:643577,paved,cons-acc-20,-0.019680509422222325,0.1661639603748294,-0.3988257210328649,-0.03640168226045863,0.03873538320130903,0.014275183558306566,0.4444452707746772,0.500000125334519,0.42857079749066884,0
372,28-2-2023_15:47:39:699612,paved,cons-acc-20,-0.036665073743523804,-0.38180545606310645,-1.2674902694372434,-0.06943472092572103,-0.04878893717637637,-0.0016839300997538494,0.4444452707746772,0.500000125334519,0.42857079749066884,0
373,28-2-2023_15:47:39:755607,paved,cons-acc-20,0.043831022534868314,-0.5825313456760834,-1.833820816859255,-0.05767565136924516,0.000805121201249738,-0.013057250054536337,0.2222221037769103,0.6666666385952433,0.5714285714285714,0
374,28-2-2023_15:47:39:803607,paved,cons-acc-20,-0.1430379926768936,-0.046053564347168896,-0.45003007350633784,-0.006207364209833047,-0.007217580791377697,-0.0014869879819397348,0.2222221037769103,0.6666666385952433,0.5714285714285714,0
375,28-2-2023_15:47:39:859533,paved,cons-acc-20,0.17536658183933967,-0.28473856117760865,-1.4720018804365058,-0.024318855070629915,0.047305954417763835,0.00487476049856422,0.5555547292253228,0.16666676414907033,0.5714285714285714,0
376,28-2-2023_15:47:39:907587,paved,cons-acc-20,0.13506948604766555,-0.9270327212851553,-1.5591172435979859,-0.03687307789473286,0.012708730066660616,0.01497108215094596,0.5555547292253228,0.16666676414907033,0.5714285714285714,0
377,28-2-2023_15:47:39:960597,paved,cons-acc-20,-0.021780773305564494,-1.0051443031647662,-0.07253966267635792,-0.02094940400467646,0.0688558880054363,0.0042102330333120466,0.2222221037769103,0.3333334447417946,0.7142857142857143,0
378,28-2-2023_15:47:40:8652,paved,cons-acc-20,0.27553599115920807,-1.2907442734581127,-0.6041893824449551,-0.008189632638198932,0.029327150489858275,-0.00877842400394961,0.2222221037769103,0.3333334447417946,0.7142857142857143,0
379,28-2-2023_15:47:40:67270,paved,cons-acc-20,0.0944140392491292,-0.8963034627466089,-0.8966995403259559,0.04718246396656767,0.0003937107251197301,-0.008187097148336193,0.33333262405493713,0.6666666385952433,0.42857079749066884,0
380,28-2-2023_15:47:40:115256,paved,cons-acc-20,0.1664134266598545,-1.2460626931134384,-1.3812314299483033,0.028654704559885114,0.054346294599441056,-0.008519199166074833,0.33333262405493713,0.6666666385952433,0.42857079749066884,0
381,28-2-2023_15:47:40:163249,paved,cons-acc-20,0.2146058790638205,-0.4944899688067147,-1.8355063918492611,-0.05426256943299594,-0.008552999222877875,0.013834300195717845,0.4444452707746772,0.6666666385952433,0.5714285714285714,0
382,28-2-2023_15:47:40:219250,paved,cons-acc-20,0.0061145712759825555,-0.7558358871524575,-1.4523043059921197,-0.06758539390700805,0.057457258182246215,0.0032978325042984837,0.4444452707746772,0.6666666385952433,0.5714285714285714,0
383,28-2-2023_15:47:40:275272,paved,cons-acc-20,-0.25064472991295217,-0.23798158584017592,-1.2363767201055729,-0.02769923862965977,0.01598262107913207,0.0009979179285331697,0.33333262405493713,0.3333334447417946,0.5714285714285714,0
384,28-2-2023_15:47:40:323233,paved,cons-acc-20,-0.3939956293898861,-0.3064013932685617,-0.8650356391213743,-0.012860979738403298,-0.021706576123238078,-0.00808822052296866,0.33333262405493713,0.3333334447417946,0.5714285714285714,0
385,28-2-2023_15:47:40:379245,paved,cons-acc-20,0.20378952900752478,-0.04666131065975565,-1.6065075462029714,-0.004204543916282376,-0.022786184976604014,-0.0026486260520922024,0.4444452707746772,0.6666666385952433,0.5714285714285714,0
386,28-2-2023_15:47:40:427247,paved,cons-acc-20,-0.09932543593699783,-0.2536355085619409,-0.20370860274901137,-0.02795983248624761,0.022399571081146263,0.007845589109397595,0.4444452707746772,0.6666666385952433,0.5714285714285714,0
387,28-2-2023_15:47:40:479428,paved,cons-acc-20,0.4802192976165639,-0.05536620136032133,-1.2040166545406483,-0.056901183395535924,0.012289802756324712,0.006593519098707264,0.33333262405493713,0.6666666385952433,0.42857079749066884,0
388,28-2-2023_15:47:40:535417,paved,cons-acc-20,0.9695027431085327,0.024120680665645322,-2.3339285900389863,-0.03639734447201951,-0.005641991608024937,0.0008663800027533487,0.33333262405493713,0.6666666385952433,0.42857079749066884,0
389,28-2-2023_15:47:40:583449,paved,cons-acc-20,1.214640886235902,-0.46137299241592516,-1.1770013691352779,-0.0022538191203153035,0.010932449467381254,-0.009901289024590539,0.2222221037769103,0.500000125334519,0.8571428571428571,0
390,28-2-2023_15:47:40:631395,paved,cons-acc-20,0.998593405539863,0.5299747242706772,-1.626879935567568,-0.0018186154088847132,-0.031069345342920586,-0.008210375324818534,0.2222221037769103,0.500000125334519,0.8571428571428571,0
391,28-2-2023_15:47:40:687436,paved,cons-acc-20,1.082060765084854,0.1112781265241618,-2.5185811282074213,-0.016475042987965934,0.0892601087970856,-0.0016283067451347407,0.5555547292253228,0.500000125334519,0.42857079749066884,0
392,28-2-2023_15:47:40:743387,paved,cons-acc-20,0.8940127964320153,0.8796098355813724,-1.1257039185836215,-0.026916662371712773,0.01310631051716464,0.00907266777166409,0.5555547292253228,0.500000125334519,0.42857079749066884,0
393,28-2-2023_15:47:40:791385,paved,cons-acc-20,0.14093002695961176,0.7996693804517329,-0.42909352838218695,-0.04018570322599696,0.0004277058214617064,0.0020526571337106947,0.2222221037769103,0.3333334447417946,0.5714285714285714,0
394,28-2-2023_15:47:40:839411,paved,cons-acc-20,0.13102601736110148,0.18828005104478207,-1.1248371699279234,-0.0233463514828986,-0.02922129232235708,-0.009679827267279615,0.2222221037769103,0.3333334447417946,0.5714285714285714,0
395,28-2-2023_15:47:40:895364,paved,cons-acc-20,-0.30324891563601986,-0.07076139047020513,0.09427760282890785,-0.014122294749943557,0.016309479614375462,-0.006544000232676757,0.11111158349888346,0.3333334447417946,0.7142857142857143,0
396,28-2-2023_15:47:40:943369,paved,cons-acc-20,0.1599947732347533,-0.3548881079341131,0.8579459041554864,-0.02083188738276599,0.031380555120423606,-0.0060216597196309455,0.11111158349888346,0.3333334447417946,0.7142857142857143,0
397,28-2-2023_15:47:40:999355,paved,cons-acc-20,0.5239164600926027,-0.6873600012218029,-0.2255230462069584,-0.023973118195580782,0.0008982592946721185,0.01060450769716934,0.33333262405493713,0.16666676414907033,0.2857142857142857,0
398,28-2-2023_15:47:41:55340,paved,cons-acc-20,0.07060158276024275,-0.8726635101183016,-0.16133043960428078,-0.03674591793608078,0.04641384149264645,0.0030977180314353406,0.33333262405493713,0.16666676414907033,0.2857142857142857,0
399,28-2-2023_15:47:41:103336,paved,cons-acc-20,0.3405394360347721,-0.1178641844656807,-0.655687500939639,-0.04801007209070923,-0.03629844664810347,-0.0043759813999964545,0.33333262405493713,0.3333334447417946,0.42857079749066884,0
400,28-2-2023_15:47:41:157829,paved,cons-acc-20,-0.033134480763771235,-0.6890024078888923,-0.8505095793666118,-0.04390286882122176,-0.006307736613532303,-0.011307893067327844,0.33333262405493713,0.3333334447417946,0.42857079749066884,0
401,28-2-2023_15:47:41:204654,paved,cons-acc-20,-0.2927546387074541,-0.7697798343929526,-0.8667216610510218,-0.011749076246717824,-0.00863480678192049,-0.006560028254064702,0.4444452707746772,0.6666666385952433,0.42857079749066884,0
402,28-2-2023_15:47:41:260379,paved,cons-acc-20,-0.44435592194447937,-0.28830328872027944,-1.7985343045280167,-0.03965822841372975,-0.02966590713126689,0.010777503296194386,0.4444452707746772,0.6666666385952433,0.42857079749066884,0
403,28-2-2023_15:47:41:308402,paved,cons-acc-20,-0.5141520967575551,-0.589107439986698,-1.882816765850451,-0.07635700835197189,0.07339386237157516,0.0012100220022562107,0.2222221037769103,0.500000125334519,0.2857142857142857,0
404,28-2-2023_15:47:41:365445,paved,cons-acc-20,-0.3644695678046118,-0.7909723278357553,-0.3000857074950056,-0.029578433306369875,0.00530722152119216,0.006841754643424055,0.2222221037769103,0.500000125334519,0.2857142857142857,0
405,28-2-2023_15:47:41:414526,paved,cons-acc-20,0.19821068279285525,-0.8508145543453743,-0.9055680130644577,-0.01927669183619134,0.03765474946033149,-0.009840547606662323,0.33333262405493713,0.500000125334519,0.5714285714285714,0
406,28-2-2023_15:47:41:462582,paved,cons-acc-20,0.036321217306239995,-0.9004269947597481,-1.4791600326175431,-0.01329897460261058,0.009316403456808207,-0.005005955152078786,0.33333262405493713,0.500000125334519,0.5714285714285714,0
407,28-2-2023_15:47:41:518576,paved,cons-acc-20,0.3461037691295747,-0.8360373835969892,-1.4859113620712954,-0.020865819657490618,0.04245285389091101,0.001747304284616941,0.33333262405493713,0.16666676414907033,0.5714285714285714,0
408,28-2-2023_15:47:41:574523,paved,cons-acc-20,0.819545928254587,-0.9440787774402233,-1.532640147145811,-0.04233783583924492,0.018418575096924895,0.004015047133204969,0.33333262405493713,0.16666676414907033,0.5714285714285714,0
409,28-2-2023_15:47:41:622511,paved,cons-acc-20,0.17344739851350188,-1.2245554801518255,-1.676396045911452,-0.031714508557093325,-0.003981432266709273,-0.003360383275030158,0.33333262405493713,0.8333333194072756,0.5714285714285714,0
410,28-2-2023_15:47:41:670503,paved,cons-acc-20,0.17179784212189203,-0.6313090490580332,-1.2085314680301096,-0.0030570364348322145,-0.019664746587998477,-0.006544610221453353,0.33333262405493713,0.8333333194072756,0.5714285714285714,0
411,28-2-2023_15:47:41:726498,paved,cons-acc-20,-0.009867805610581287,-0.3119680051266712,-1.3492319189116284,-0.014910091399457282,-0.028666514682768023,-0.00319162095382444,0.33333262405493713,0.0,0.8571428571428571,0
412,28-2-2023_15:47:41:774492,paved,cons-acc-20,-0.3880523081178485,-0.22370682358741623,-1.5456395505736091,-0.04839744646309039,0.024666800632243805,0.0005876591609816169,0.33333262405493713,0.0,0.8571428571428571,0
413,28-2-2023_15:47:41:830486,paved,cons-acc-20,0.42634219347227,0.021438044350740898,-0.9461713433284065,-0.03815242451682761,-0.013278886478778496,0.007694110856459456,0.33333262405493713,0.6666666385952433,0.2857142857142857,0
414,28-2-2023_15:47:41:886484,paved,cons-acc-20,0.046471398649257534,-0.20793511312553756,-1.4407294384991545,-0.05862952876969607,0.08203984440765269,0.003181746351347433,0.33333262405493713,0.6666666385952433,0.2857142857142857,0
415,28-2-2023_15:47:41:934471,paved,cons-acc-20,0.38140744073778277,-0.7652031218953692,-0.6451038988983906,-0.03433910775847511,-0.02647595614155522,-0.0004561822518588817,0.11111158349888346,0.6666666385952433,0.5714285714285714,0
416,28-2-2023_15:47:41:982476,paved,cons-acc-20,0.10825916735396707,-0.6287005295233425,-0.5239412961814254,-0.01563982215285097,0.0006624211190225104,-0.009107176433511329,0.11111158349888346,0.6666666385952433,0.5714285714285714,0
417,28-2-2023_15:47:42:38457,paved,cons-acc-20,-0.04922937832197671,-1.2397884437112703,-1.5440445834682959,-0.04125759062479253,-0.0075938261351530985,-0.0072361532736674745,0.4444452707746772,0.6666666385952433,0.8571428571428571,0
418,28-2-2023_15:47:42:86452,paved,cons-acc-20,0.1589632819060359,-1.139403594178224,-1.1305841042872085,-0.0003372622529102601,-0.012500250444069447,0.011611799541041476,0.4444452707746772,0.6666666385952433,0.8571428571428571,0
419,28-2-2023_15:47:42:142446,paved,cons-acc-20,0.6214261569953411,-0.7128128474916209,-0.9841334672716266,-0.04859382699855403,-0.002824141057857466,0.002905296953875161,0.5555547292253228,0.6666666385952433,0.7142857142857143,0
420,28-2-2023_15:47:42:190438,paved,cons-acc-20,0.6712183365099678,-0.8015140584180231,-1.910050290800748,-0.04075018851369641,-0.02781391990639092,-0.0005490138911570389,0.5555547292253228,0.6666666385952433,0.7142857142857143,0
421,28-2-2023_15:47:42:246433,paved,cons-acc-20,0.3687654125148652,-0.6341616734481599,-1.3104831197930562,-0.029446884087828334,0.03569567098780673,-0.004185434598730394,0.2222221037769103,0.500000125334519,0.42857079749066884,0
422,28-2-2023_15:47:42:294443,paved,cons-acc-20,0.10613278096362772,-0.2288029966233054,-2.335551009589764,-0.0461673764847543,-0.01076957486668708,0.0013152756440244504,0.2222221037769103,0.500000125334519,0.42857079749066884,0
423,28-2-2023_15:47:42:350434,paved,cons-acc-20,-1.096008924844751,0.08419094353110596,-0.6685093459964784,-0.024872898822343947,0.013661097876073967,0.011653130298730215,0.5555547292253228,0.6666666385952433,0.5714285714285714,0
424,28-2-2023_15:47:42:406461,paved,cons-acc-20,-0.06336398860047932,0.6786689101350267,0.43917684685576375,-0.007948979670676912,0.00033120436541285263,0.005926302579837003,0.5555547292253228,0.6666666385952433,0.5714285714285714,0
425,28-2-2023_15:47:42:454428,paved,cons-acc-20,-0.24013044130573488,0.06926549929104497,-1.1207394120670873,-0.036576884640143234,0.026567155150150415,0.0017036677199431171,0.4444452707746772,0.6666666385952433,0.5714285714285714,0
426,28-2-2023_15:47:42:502414,paved,cons-acc-20,-0.7829261806406527,-0.6705597100827063,-1.0867498983179797,-0.03532021429008384,0.006305015085220002,-0.006259221628753292,0.4444452707746772,0.6666666385952433,0.5714285714285714,0
427,28-2-2023_15:47:42:558393,paved,cons-acc-20,-0.1484039699466665,-0.9842815586183309,-1.4749985599284052,-0.03283758931081537,-0.01522011071848391,-0.010878945811164114,0.2222221037769103,0.16666676414907033,0.7142857142857143,0
428,28-2-2023_15:47:42:606439,paved,cons-acc-20,-0.5187937959502036,-1.2420815960460931,-1.8488038272246792,-0.037312305668633236,-0.0027984632410036035,-0.002878191674179154,0.2222221037769103,0.16666676414907033,0.7142857142857143,0
429,28-2-2023_15:47:42:662414,paved,cons-acc-20,-0.3042215411604129,-1.5820948174345,-1.2293538064840948,-0.03559069775402263,0.007287732639317807,0.009891185390694002,0.5555547292253228,0.500000125334519,0.42857079749066884,0
430,28-2-2023_15:47:42:718372,paved,cons-acc-20,-0.20811480143424146,-0.8239817013109667,-1.604833930451043,-0.05246789272690089,0.09108610521906829,0.002681294767476066,0.5555547292253228,0.500000125334519,0.42857079749066884,0
431,28-2-2023_15:47:42:766374,paved,cons-acc-20,-0.4130446141828267,-1.043125421621729,-1.4413862584559467,-0.03207289480586578,-0.016467496801893605,-0.0027469181303641,0.4444452707746772,0.500000125334519,0.42857079749066884,0
432,28-2-2023_15:47:42:814376,paved,cons-acc-20,-0.19225812504106285,-0.7017706024457021,-1.4427613206732646,-0.0659905523872534,0.004038527030573093,-0.008107506876277884,0.4444452707746772,0.500000125334519,0.42857079749066884,0
433,28-2-2023_15:47:42:870411,paved,cons-acc-20,-1.6948717191113944,-1.556667109024075,1.1568729406540579,-0.042434265627338874,0.039698012140841794,0.004066710370211899,0.2222221037769103,0.3333334447417946,0.8571428571428571,0
434,28-2-2023_15:47:42:918367,paved,cons-acc-20,-1.2783208059715652,-1.0495513482726881,1.920762406283052,-0.019459018359716272,0.05304305248680947,0.015053518737432334,0.2222221037769103,0.3333334447417946,0.8571428571428571,0
435,28-2-2023_15:47:42:974398,paved,cons-acc-20,-1.6267182311599133,-0.5138665559735053,2.523291965911583,-0.0581522311492538,-0.004928538225570087,0.007775711416020921,0.33333262405493713,0.0,0.42857079749066884,0
436,28-2-2023_15:47:43:22339,paved,cons-acc-20,-1.1756831514199806,0.5262580291035402,1.6467452817979562,-0.03332171507363495,-0.029933986681730005,0.00320914779906626,0.33333262405493713,0.0,0.42857079749066884,0
437,28-2-2023_15:47:43:78385,paved,cons-acc-20,-1.029004503040039,0.7137928251161034,0.9492254253883952,-0.07857244843037478,-0.010613884855379705,-0.0101759270372219,0.33333262405493713,0.6666666385952433,0.5714285714285714,0
438,28-2-2023_15:47:43:126380,paved,cons-acc-20,-1.1367293592725303,-0.21281903311001682,0.4838236616729975,-0.06558241852967192,0.018030204263093232,-0.003526567193102804,0.33333262405493713,0.6666666385952433,0.5714285714285714,0
439,28-2-2023_15:47:43:182321,paved,cons-acc-20,-0.5594465043838351,0.022442504396247426,-0.1813184551872259,-0.06669769401060238,-0.011633987706917405,0.00029829448680497193,0.33333262405493713,0.3333334447417946,1.0,0
440,28-2-2023_15:47:43:238305,paved,cons-acc-20,-0.3884516712623214,-0.42783722483217923,-1.5876315890638257,-0.061214954744366085,-0.007102381136896633,0.011488518087529227,0.33333262405493713,0.3333334447417946,1.0,0
441,28-2-2023_15:47:43:286299,paved,cons-acc-20,-0.6889718267572211,-1.2089781491262768,-1.4001267759955172,-0.04084619841768515,0.04304548876941306,0.005694136030160764,0.4444452707746772,0.500000125334519,0.5714285714285714,0
442,28-2-2023_15:47:43:334292,paved,cons-acc-20,-0.2090581582559714,-0.6523662347085348,-1.2480951985642594,-0.03268121506323857,-0.004312617076054355,-0.007749460315011793,0.4444452707746772,0.500000125334519,0.5714285714285714,0
443,28-2-2023_15:47:43:390288,paved,cons-acc-20,0.22937642754940812,-1.3060875333916377,-1.7465336493460362,-0.02024950734939687,-0.008632146977509553,-0.0034193195073832392,0.33333262405493713,0.6666666385952433,0.5714285714285714,0
444,28-2-2023_15:47:43:438285,paved,cons-acc-20,-0.0853667133238204,-0.9727729177023838,-1.845003069003097,-0.024600767765446473,0.018346509125326163,-0.0035572675839464813,0.33333262405493713,0.6666666385952433,0.5714285714285714,0
445,28-2-2023_15:47:43:494315,paved,cons-acc-20,-0.47343234588660976,-1.3005311898897673,-1.8774022335557226,-0.023338860774121502,0.019277558507969705,0.01213960920629584,0.33333262405493713,0.16666676414907033,0.7142857142857143,0
446,28-2-2023_15:47:43:549720,paved,cons-acc-20,-0.5462852401300567,-1.4669160923666447,-0.9286645015941124,2.34768185364137e-05,0.029221346640913227,0.007327890745753221,0.33333262405493713,0.16666676414907033,0.7142857142857143,0
447,28-2-2023_15:47:43:592312,paved,cons-acc-20,-0.009015963585312758,-1.0019252193376782,-1.5325470311169795,-0.019501652529184448,-0.009697611240603615,-0.0011865923500810824,0.5555547292253228,0.3333334447417946,0.7142857142857143,0
448,28-2-2023_15:47:43:648307,paved,cons-acc-20,-0.17841087507048034,-0.42833693313285826,-1.0830177785962272,-0.010687801978286605,0.027968066223745175,-0.0063453211960930594,0.5555547292253228,0.3333334447417946,0.7142857142857143,0
449,28-2-2023_15:47:43:704307,paved,cons-acc-20,-0.00036192403783122384,0.46706532961350566,-0.6463545198980721,-0.025124887864979288,0.0028792325870811673,-0.004362928417472147,0.2222221037769103,0.3333334447417946,0.8571428571428571,0
450,28-2-2023_15:47:43:752343,paved,cons-acc-20,-0.10609565676418943,-0.2460480913470683,-0.7626979121131605,-0.028077594552732114,-0.010851884455241304,0.005854808320151813,0.2222221037769103,0.3333334447417946,0.8571428571428571,0
451,28-2-2023_15:47:43:808288,paved,cons-acc-20,0.18742276932289859,-0.20152662885263456,-0.1468276565012141,-0.022597181461727144,0.014266109842439484,0.00928592178953738,0.33333262405493713,0.500000125334519,0.5714285714285714,0
452,28-2-2023_15:47:43:856329,paved,cons-acc-20,-0.35736466542869916,-0.22206638683087182,-0.41774944702279465,-0.03421942749285303,0.024180771391490153,0.006723402836731418,0.33333262405493713,0.500000125334519,0.5714285714285714,0
453,28-2-2023_15:47:43:912283,paved,cons-acc-20,-0.49077010491281003,-0.11610894468502478,-0.5363459788997378,-0.03428478653104752,-0.02719135188290556,0.0067473586554947455,0.33333262405493713,0.8333333194072756,0.5714285714285714,0
454,28-2-2023_15:47:43:960271,paved,cons-acc-20,-0.4596900406085198,-0.5050614524050787,-0.9100941556017288,-0.04659978169288139,-0.0130230190832247,-0.004034882030425967,0.33333262405493713,0.8333333194072756,0.5714285714285714,0
455,28-2-2023_15:47:44:16302,paved,cons-acc-20,-0.22664776057379277,-0.4824833891214665,-0.6277703597215675,0.010157231033823037,0.010045691851434774,0.004549847736845454,0.33333262405493713,0.8333333194072756,0.42857079749066884,0
456,28-2-2023_15:47:44:64274,paved,cons-acc-20,-0.07382975429146266,-0.2593597798900237,-0.932142709521472,-0.026045039274691567,-0.012124763095833114,0.009201495968148895,0.33333262405493713,0.8333333194072756,0.42857079749066884,0
457,28-2-2023_15:47:44:112244,paved,cons-acc-20,-0.5639102539288361,-1.0013830653156304,-0.9443790389443353,-0.026732329809219125,0.024761514753143317,0.012001753604825464,0.33333262405493713,0.500000125334519,0.5714285714285714,0
458,28-2-2023_15:47:44:168284,paved,cons-acc-20,-0.809581964335942,-0.37755567817982905,-0.5481539021819191,-0.02782695663423749,0.026954648153392213,-0.0035086861750618526,0.33333262405493713,0.500000125334519,0.5714285714285714,0
459,28-2-2023_15:47:44:224230,paved,cons-acc-20,-0.9930276299300709,-0.8758816331924751,-1.1042537155058079,-0.012402846376375168,0.009969567326670585,-0.005886851059133795,0.33333262405493713,0.6666666385952433,0.42857079749066884,0
460,28-2-2023_15:47:44:272223,paved,cons-acc-20,-0.47593141743506584,-0.2681249716092273,-0.4030401936080724,-0.004372783388478746,-0.007051095214769827,-0.0015556271108560825,0.33333262405493713,0.6666666385952433,0.42857079749066884,0
461,28-2-2023_15:47:44:328214,paved,cons-acc-20,-0.08863476508424928,-1.3381295460272178,-2.3317184504931427,-0.04637394751535049,0.05327445107198433,-0.001516321659189454,0.4444452707746772,0.6666666385952433,0.7142857142857143,0
462,28-2-2023_15:47:44:376219,paved,cons-acc-20,-0.009961117969119679,-1.3030824185227754,-1.1989179597993036,-0.013668138801807846,0.03791191966274883,0.008579602906224415,0.4444452707746772,0.6666666385952433,0.7142857142857143,0
463,28-2-2023_15:47:44:424203,paved,cons-acc-20,0.23593124885874078,-1.5757651498186958,-1.5983840012234884,-0.04204773910386724,0.03494053282963174,0.0010026370245047895,0.4444452707746772,0.500000125334519,0.5714285714285714,0
464,28-2-2023_15:47:44:480243,paved,cons-acc-20,-0.03979857731770131,-1.6579234106185625,-0.8695225068919863,-0.03682725462010381,0.0004120062731870072,-0.008971084901047402,0.4444452707746772,0.500000125334519,0.5714285714285714,0
465,28-2-2023_15:47:44:536237,paved,cons-acc-20,0.07657884099857133,-0.8307538345127612,-1.7796610698199111,-0.02362645597999478,-0.02763252854911136,-0.012850927686493712,0.33333262405493713,0.6666666385952433,0.5714285714285714,0
466,28-2-2023_15:47:44:580788,paved,cons-acc-20,0.07211411952744454,-1.3911386596134938,-2.0494380681702813,-0.007490545434314995,0.03927756127391893,-0.0015945947916476098,0.33333262405493713,0.6666666385952433,0.5714285714285714,0
467,28-2-2023_15:47:44:636773,paved,cons-acc-20,0.22434524346337426,0.1518086052497012,-2.653351231158246,-0.053918673673006685,-0.020817414005335433,0.0021852790104616654,0.4444452707746772,0.16666676414907033,0.7142857142857143,0
468,28-2-2023_15:47:44:692764,paved,cons-acc-20,-0.392837948820868,-0.25909338037324314,-1.9424738317014894,-0.03614224067058264,-0.015092281354478168,0.0013318819799368882,0.4444452707746772,0.16666676414907033,0.7142857142857143,0
469,28-2-2023_15:47:44:740753,paved,cons-acc-20,-0.4574945439199769,0.07646789427097977,-1.3209922629027973,-0.02354288103266455,-0.021728425570157157,-0.005322728329088597,0.4444452707746772,0.6666666385952433,0.7142857142857143,0
470,28-2-2023_15:47:44:788755,paved,cons-acc-20,-0.5387851116037716,-0.331710979978066,-1.3787367710812222,-0.016215006271726354,-0.0200833394621552,-0.008264904064474506,0.4444452707746772,0.6666666385952433,0.7142857142857143,0
471,28-2-2023_15:47:44:844799,paved,cons-acc-20,-0.007163505925775748,-0.5930289861365905,-0.8221896204244555,-0.017055608652430655,-0.029950943601718134,0.00029917042612062975,0.33333262405493713,0.6666666385952433,0.42857079749066884,0
472,28-2-2023_15:47:44:892738,paved,cons-acc-20,-0.11064826371258708,-0.9480073704116321,-1.6354664033162432,-0.009451423455115855,0.01091264221748671,0.0038825437614181243,0.33333262405493713,0.6666666385952433,0.42857079749066884,0
473,28-2-2023_15:47:44:950404,paved,cons-acc-20,0.3490982849696243,-0.7765862689838764,-1.8504895194436517,-0.03611925993140959,0.024111831991609593,0.001548043443795386,0.2222221037769103,0.6666666385952433,0.42857079749066884,0
474,28-2-2023_15:47:44:998499,paved,cons-acc-20,0.22284626856045547,-1.1846289282271796,-1.8029807284448183,-0.07606562407865408,0.04695135715499198,0.0005872290046517483,0.2222221037769103,0.6666666385952433,0.42857079749066884,0
475,28-2-2023_15:47:45:54433,paved,cons-acc-20,0.12566908804514082,-0.9353792378641473,-0.5739708819483065,-0.04226732768958389,0.06121589006883042,0.0006183673733569305,0.2222221037769103,0.6666666385952433,0.42857079749066884,0
476,28-2-2023_15:47:45:102426,paved,cons-acc-20,-0.28149258397023813,-1.3762717366133688,-1.0942763864316811,-0.045158109913477705,0.024348875501737074,-0.00750811426605316,0.2222221037769103,0.6666666385952433,0.42857079749066884,0
477,28-2-2023_15:47:45:159434,paved,cons-acc-20,0.09219589748467982,-0.5156983296633776,-0.6545415241218309,-0.021807791100410433,0.013071617545835539,-0.012005882889357292,0.33333262405493713,0.6666666385952433,0.7142857142857143,0
478,28-2-2023_15:47:45:207460,paved,cons-acc-20,-0.753717650353292,-0.8425434649277427,-0.9934294671604054,-0.013724784198037,0.030879463937067822,0.005941659888810645,0.33333262405493713,0.6666666385952433,0.7142857142857143,0
479,28-2-2023_15:47:45:255434,paved,cons-acc-20,-0.13202113502382573,-0.16382396052994375,-1.2921351759196082,-0.0026701860070266967,-0.01621036196882806,0.009668866144547938,0.33333262405493713,0.500000125334519,0.1428565117763831,0
480,28-2-2023_15:47:45:311434,paved,cons-acc-20,-0.27024704054887244,-0.4677583214431248,-2.1366359542493716,-0.06881432086911934,0.060447326862523,0.0010146317307955285,0.33333262405493713,0.500000125334519,0.1428565117763831,0
481,28-2-2023_15:47:45:367480,paved,cons-acc-20,0.20425867588803653,0.41225049974725914,-0.6179568065816969,0.010068572648373852,0.011439635461682578,0.007129922258328131,0.33333262405493713,0.3333334447417946,0.2857142857142857,0
482,28-2-2023_15:47:45:415473,paved,cons-acc-20,0.48068614220882183,0.9523930304728822,-0.4676087932215888,-0.030791981928381014,-0.02097655157832925,0.001046504051087767,0.33333262405493713,0.3333334447417946,0.2857142857142857,0
483,28-2-2023_15:47:45:463466,paved,cons-acc-20,0.10185272398356937,0.42941833332865154,-0.7477209577885587,-0.0321823470442802,-0.026321536390405742,-0.0006425266585825355,0.2222221037769103,0.3333334447417946,0.42857079749066884,0
484,28-2-2023_15:47:45:519412,paved,cons-acc-20,0.5610252535820089,0.48179757831549463,-1.989051927895296,-0.06182158724205041,-0.01873539463932681,0.00551211002182615,0.2222221037769103,0.3333334447417946,0.42857079749066884,0
485,28-2-2023_15:47:45:567452,paved,cons-acc-20,0.26333072265746554,0.7312224734397907,-1.4045230741570123,-0.029115102240901983,0.034551641616571524,0.004748598539023415,0.33333262405493713,0.500000125334519,0.42857079749066884,0
486,28-2-2023_15:47:45:623388,paved,cons-acc-20,0.27314152082594095,0.17385728760165842,-2.1948386487582785,-0.06136695561190555,0.002489116854294003,0.0066148892903475035,0.33333262405493713,0.500000125334519,0.42857079749066884,0
487,28-2-2023_15:47:45:679380,paved,cons-acc-20,0.11815327894588806,-0.594067547285393,-1.1202914981837946,-0.03972351977214733,0.004463748713283815,-0.004079365210479337,0.2222221037769103,0.500000125334519,0.5714285714285714,0
488,28-2-2023_15:47:45:727423,paved,cons-acc-20,1.1326269731150782,-0.8510205807012624,-2.110995944463218,-0.06510028651142435,-0.05009290587411577,-0.01209273847358765,0.2222221037769103,0.500000125334519,0.5714285714285714,0
489,28-2-2023_15:47:45:775417,paved,cons-acc-20,1.0228914499790778,-0.33652049662672023,-1.900935443559426,-0.02745870734077964,0.08067322219952433,-0.008592483888054522,0.2222221037769103,0.500000125334519,0.5714285714285714,0
490,28-2-2023_15:47:45:831410,paved,cons-acc-20,0.40775590082902513,-1.1823590596534217,-3.4523182971551885,-0.022369558439823575,0.007907769409462362,0.009564335767375734,0.2222221037769103,0.500000125334519,0.5714285714285714,0
491,28-2-2023_15:47:45:879361,paved,cons-acc-20,0.41732802974147426,-0.8865896473871355,-1.6557150566442722,0.02361492803085188,0.05018220811033343,0.008585792280308332,0.11111158349888346,0.6666666385952433,0.7142857142857143,0
492,28-2-2023_15:47:45:935356,paved,cons-acc-20,0.0467732765890454,-0.4297142524650566,-2.3147707017645547,-0.048034446325187566,0.031248490734694354,0.00224294408386578,0.11111158349888346,0.6666666385952433,0.7142857142857143,0
493,28-2-2023_15:47:45:991352,paved,cons-acc-20,-0.1157266415319104,-0.620984367455474,-1.573421962970332,-0.06681004925377387,0.009937148280430016,-0.005547463329521634,0.2222221037769103,0.3333334447417946,0.5714285714285714,0
494,28-2-2023_15:47:46:39383,paved,cons-acc-20,-0.015423953205394525,-0.4184784464133223,-1.7530981258280705,-0.0646236665318344,-0.009935212441001245,-0.008163480212169415,0.2222221037769103,0.3333334447417946,0.5714285714285714,0
495,28-2-2023_15:47:46:87338,paved,cons-acc-20,-0.06549341768830069,-0.40547236359927646,-1.146690789486683,-0.06718690989675422,0.004903888172104395,0.0021021266293176754,0.4444452707746772,0.3333334447417946,0.7142857142857143,0
496,28-2-2023_15:47:46:143323,paved,cons-acc-20,0.20192869582977346,-0.7591193004983603,-2.0491679723671106,-0.12874255459129574,-0.010837378518153154,0.014570701812999808,0.4444452707746772,0.3333334447417946,0.7142857142857143,0
497,28-2-2023_15:47:46:199323,paved,cons-acc-20,-0.5028747128656748,-0.3378687642474146,-0.2407075619239809,-0.07763665850091099,0.0019899503523386156,0.020526544374559308,0.4444452707746772,0.8333333194072756,0.42857079749066884,0
498,28-2-2023_15:47:46:247355,paved,cons-acc-20,-0.47095996768879916,-0.3860384513482384,-0.6872711791999124,-0.08561091358440094,0.00665613681820892,-0.0038300801206046856,0.4444452707746772,0.8333333194072756,0.42857079749066884,0
499,28-2-2023_15:47:46:295349,paved,cons-acc-20,-0.7853790883812204,-0.03393163184768161,-0.24357420777797278,-0.027257415214489128,-0.059421995461186546,-0.007409893545500281,0.11111158349888346,0.500000125334519,0.7142857142857143,0
500,28-2-2023_15:47:46:351294,paved,cons-acc-20,-0.4573171929183442,-0.6704897157969798,-0.7729944846556823,-0.0009126368298631171,-0.03727482460542801,-0.008611994008200476,0.11111158349888346,0.500000125334519,0.7142857142857143,0
501,28-2-2023_15:47:46:399301,paved,cons-acc-20,-0.8712797603257916,0.06822884506728655,-0.38954847545549015,-0.008565213928229691,0.028870535822791046,0.0070813269357072745,0.5555547292253228,0.8333333194072756,0.5714285714285714,0
502,28-2-2023_15:47:46:455331,paved,cons-acc-20,-0.7967438019054855,-0.7279749202603079,-0.8582342328744276,-0.005150123304583868,-0.03073362210038353,0.014827597565459223,0.5555547292253228,0.8333333194072756,0.5714285714285714,0
503,28-2-2023_15:47:46:511276,paved,cons-acc-20,-0.9179118216542246,-0.41150089426318265,-0.004589873541637868,-0.006756354278838455,-0.020026448165096564,0.00327760189565416,0.33333262405493713,0.500000125334519,0.7142857142857143,0
504,28-2-2023_15:47:46:559279,paved,cons-acc-20,-0.9926795584367323,-0.5142290102946107,-0.8213753599207219,-0.04893430159816352,-0.05209947822496284,-0.015459641106553765,0.33333262405493713,0.500000125334519,0.7142857142857143,0
505,28-2-2023_15:47:46:607313,paved,cons-acc-20,-0.6309179918136301,-0.5264486431554535,-0.21563360886818317,-0.032793690210288065,-0.05475474105790188,-0.010784427818689733,0.2222221037769103,0.500000125334519,0.42857079749066884,0
506,28-2-2023_15:47:46:663300,paved,cons-acc-20,0.054709867327561446,-1.2562481962573449,-0.9016575438302958,-0.03645431437210153,0.013884492341977951,0.0005144538318046805,0.2222221037769103,0.500000125334519,0.42857079749066884,0
507,28-2-2023_15:47:46:711254,paved,cons-acc-20,0.22853452867644,-1.1409961703015474,-1.1025569268254654,-0.05278552576338437,0.05082474815906945,0.007138852453421608,0.6666663127242063,0.6666666385952433,0.2857142857142857,0
508,28-2-2023_15:47:46:767299,paved,cons-acc-20,-0.022575301537400255,-1.7915536680129245,-0.895796324773467,-0.03286319471601101,0.07887952795529973,0.011309118422724725,0.6666663127242063,0.6666666385952433,0.2857142857142857,0
509,28-2-2023_15:47:46:815242,paved,cons-acc-20,-0.0956221063543785,-0.9582440423372007,-1.6184213037063517,-0.0036478854405045877,0.0609419268815644,-0.0025030442288304193,0.33333262405493713,0.500000125334519,0.7142857142857143,0
510,28-2-2023_15:47:46:871287,paved,cons-acc-20,-0.5499871904434642,-0.9378592559756583,-1.5244502000054285,0.016526006480198006,0.03396887079684298,-0.017047001025717982,0.33333262405493713,0.500000125334519,0.7142857142857143,0
511,28-2-2023_15:47:46:919283,paved,cons-acc-20,0.29577750755178234,-0.9084239005350276,-1.9344242171345256,0.010307934245037856,-0.014652269954669325,-0.018216165471793323,0.33333262405493713,0.500000125334519,0.5714285714285714,0
512,28-2-2023_15:47:46:975275,paved,cons-acc-20,0.2124982233712664,-0.7279648187952359,-2.329255288342461,-0.001576080275747788,0.0189626108185926,-0.0007428931649736265,0.33333262405493713,0.500000125334519,0.5714285714285714,0
513,28-2-2023_15:47:47:31207,paved,cons-acc-20,0.26129124827964356,-0.09638530742328433,-1.8949855276773695,-0.02379408014485864,0.018089106305823426,0.01166955696117772,0.33333262405493713,0.6666666385952433,0.7142857142857143,0
514,28-2-2023_15:47:47:79210,paved,cons-acc-20,-0.14003060240673326,0.2581337206769497,-0.08677021422864573,0.006422444513100867,0.036560485889523334,0.01778344255216732,0.33333262405493713,0.6666666385952433,0.7142857142857143,0
515,28-2-2023_15:47:47:127196,paved,cons-acc-20,-0.04753042868359739,0.4834414498562211,-0.47862468707050904,-0.051832196396437984,0.037588629148249744,-0.0013903066466367624,0.33333262405493713,0.6666666385952433,0.5714285714285714,0
516,28-2-2023_15:47:47:183199,paved,cons-acc-20,-0.33406795215290086,-0.1468279109576937,-0.3323116883398335,-0.022915521192525046,0.004983221122906008,-0.001991476517795916,0.33333262405493713,0.6666666385952433,0.5714285714285714,0
517,28-2-2023_15:47:47:231208,paved,cons-acc-20,-0.22809235670119665,0.11399440282517032,-1.3733317391450153,-0.04427028748465642,0.015034437095238686,-0.0034315778809208223,0.4444452707746772,0.500000125334519,0.8571428571428571,0
518,28-2-2023_15:47:47:289005,paved,cons-acc-20,-0.07479668793654662,0.266970515468992,-0.01062469129153687,-0.04656826294431474,0.04155608006637643,0.0033373186420945066,0.4444452707746772,0.500000125334519,0.8571428571428571,0
519,28-2-2023_15:47:47:337070,paved,cons-acc-20,0.34141792254437164,0.5114293276768627,-1.1054297855567587,-0.06357688393492766,-0.006824052315485572,-0.0037648541445931714,0.4444452707746772,0.500000125334519,0.5714285714285714,0
